Folder: physics-132/bartels lab/3642 MoS2 on 1012 WG/Raman_5_21_2015_Dominic/C3_R2/python files used/3642_8401x_3256y (part 2)

File: PL600.txt
1.7708	2694.241
1.77132	2724.47
1.771839	2762.282
1.77236	2804.4
1.77288	2827.37
1.77341	2844.9
1.77393	2861.94
1.77445	2872.65
1.77497	2885.52
1.7755	2908.56
1.77602	2950.573
1.77655	2972.33
1.77707	2987.6
1.777596	3009.87
1.77812	3013.61
1.77865	3046.499
1.77917	3066.52
1.7797	3103.27
1.780226	3118.56
1.780753	3128.76
1.78128	3132.11
1.78181	3147.6
1.78234	3175.58
1.78286	3198.85
1.78339	3212.74
1.78392	3232.4
1.78445	3258.14
1.78498	3287.48
1.78551	3308.91
1.78604	3339.91
1.78657	3369.19
1.7871	3394.36
1.78764	3406.48
1.78817	3448.44
1.788699	3477.44
1.78923	3507.62
1.78976	3542.13
1.7903	3580.98
1.79083	3610.15
1.79136	3638.02
1.791899	3664.29
1.79243	3701.58
1.79297	3745.46
1.7935	3794.604
1.79404	3843
1.79458	3888.89
1.79511	3929.25
1.79565	3969.53
1.79618	4016.71
1.79672	4063.92
1.79726	4107.34
1.7978	4152.126
1.79834	4191.58
1.79887	4217.06
1.79941	4243.16
1.79995	4296.4
1.80049	4355.09
1.80103	4414.01
1.80157	4444.21
1.80211	4442.05
1.80265	4450.145
1.8032	4482.002
1.803738	4527.001
1.80428	4564.35
1.80482	4615.58
1.80537	4628.68
1.80591	4645.41
1.80645	4664.85
1.807	4696.97
1.80754	4744.3
1.808085	4780.16
1.80863	4826.82
1.80918	4846.3
1.80972	4869.64
1.81027	4901.94
1.81081	4937.48
1.81136	4982.26
1.81191	5041.36
1.81245	5123.16
1.813	5176.27
1.81355	5229.05
1.8141	5310.79
1.81465	5350.313
1.815197	5390.356
1.81575	5454.27
1.8163	5550.73
1.81685	5649.64
1.8174	5729.17
1.81795	5809.76
1.8185	5907.07
1.81905	5978.81
1.8196	6035.3
1.82016	6074.67
1.82071	6139.12
1.82126	6230.76
1.82182	6321.6
1.822369	6379.97
1.82292	6395.98
1.82348	6408.08
1.82403	6453.22
1.82459	6513.13
1.82514	6560.208
1.8257	6596.77
1.82626	6633.19
1.82681	6681.62
1.82737	6721.24
1.82793	6742.89
1.82849	6760.23
1.82904	6790.93
1.8296	6821.52
1.830161	6925.59
1.83072	6959.72
1.83128	6976.77
1.83184	7008.51
1.8324	7068.61
1.83296	7158.59
1.83352	7229.75
1.83408	7307.18
1.83465	7366.56
1.83521	7434.33
1.83577	7521.21
1.83633	7607.32
1.8369	7664.82
1.83746	7717.43
1.83802	7775.41
1.83859	7845.93
1.83915	7918.2
1.83972	7983.54
1.84028	8036.52
1.84085	8069.13
1.841417	8095.832
1.84198	8135.49
1.84255	8191.17
1.84312	8256.53
1.84369	8291.87
1.844254	8289
1.84482	8284.05
1.84539	8280.6
1.84596	8265.374
1.84653	8262.85
1.8471	8279.1
1.84767	8312.14
1.84824	8339.58
1.84881	8333.81
1.84938	8320.05
1.84996	8308.15
1.85053	8303.59
1.8511	8307.31
1.85167	8312.44
1.85225	8283.083
1.85282	8254.72
1.8534	8229.91
1.85397	8226.91
1.85455	8240.03
1.85512	8220.75
1.8557	8201.82
1.85627	8171.87
1.85685	8154.4
1.85743	8115.03
1.858	8078.64
1.85858	8042.48
1.85916	8030.68
1.85974	7994.75
1.86032	7856.104
1.86089	7804.29
1.86147	7768.73
1.862054	7720.86
1.86263	7677.67
1.86322	7637.32
1.8638	7618.8
1.86438	7580.15
1.86496	7486.38
1.86554	7394.5
1.86612	7352
1.86671	7319.54
1.86729	7244.67
1.86787	7160.75
1.86846	7125.47
1.86904	7090.96
1.86963	7055.39
1.870213	7012.13
1.8708	6949.91
1.87138	6864.06
1.87197	6800.82
1.87256	6757.96
1.87315	6698.22
1.87373	6596.73
1.87432	6493.24
1.87491	6410.95
1.8755	6336.16
1.87609	6272.27
1.87668	6173.45
1.87727	6067.16
1.87786	5977.93
1.87845	5881.38
1.87904	5797.772
1.87963	5701.41
1.88022	5603.687
1.88082	5481.9
1.88141	5364.43
1.882	5233.95
1.8826	5123.22
1.88319	5049.51
1.88378	4989.41
1.88438	4903.355
1.88497	4781.76
1.88557	4680.72
1.88616	4612.66
1.88676	4541.08
1.88736	4458.707
1.887955	4377.05
1.88855	4300.79
1.88915	4226.45
1.88975	4154.436
1.89035	4076.95
1.89095	4017.87
1.89155	3982.835
1.89215	3920.25
1.89275	3838.2
1.89335	3765.18
1.89395	3721.92
1.89455	3667.38
1.895152	3601.23
1.89575	3536.57
1.89636	3474.14
1.89696	3422.498
1.89756	3371.96
1.89817	3319.65
1.89877	3256.86
1.899377	3206.34
1.89998	3160.07
1.90059	3099.12
1.90119	3030.65
1.9018	2974.61
1.90241	2932.35
1.90301	2893.27
1.903622	2854.78
1.90423	2812.64
1.90484	2762.86
1.90545	2710.03
1.90606	2654.156
1.90667	2608.83
1.90728	2567.41
1.90789	2527.53
1.9085	2484.1
1.90911	2437.71
1.90972	2386.77
1.91033	2339.489
1.910946	2295.56
1.911559	2246.85
1.91217	2208.66
1.91279	2184.69
1.9134	2153.751
1.91402	2114.82
1.91463	2067.19
1.91525	2032.08
1.91571	2013.016

File: Raman1800.txt
650.268	59.7849
648.343	59.54715
646.417	61.8358
644.491	62.8349
642.564	63.8919
640.637	64.1237
638.71	64.3324
636.782	63.3804
634.852	63.4322
632.9231	63.3044
630.992	62.9568
629.0625	62.4107
627.131	63.1125
625.198	63.7149
623.2655	63.2214
621.332	64.7551
619.3988	65.9229
617.465	65.3913
615.528	63.4748
613.594	62.2191
611.656	61.11544
609.721	61.3327
607.783	61.9007
605.844	59.41291
603.9054	62.3925
601.966	64.4732
600.026	64.4323
598.0863	64.1861
596.146	63.9559
594.205	63.9345
592.261	64.111
590.32	64.0557
588.375	63.3656
586.431	61.7133
584.486	60.0093
582.54	59.9888
580.594	60.7698
578.648	62.2159
576.701	63.1981
574.754	62.8204
572.805	60.832
570.857	59.4241
568.906	59.679
566.958	59.6041
565.006	59.8538
563.055	60.76025
561.103	60.2996
559.15	61.6827
557.197	62.6351
555.244	62.21904
553.288	61.5628
551.334	61.5164
549.377	62.30476
547.422	64.8244
545.465	66.5524
543.507	67.2165
541.549	67.2591
539.59	68.129
537.631	70.3764
535.671	75.6997
533.711	80.00882
531.751	81.65934
529.788	89.6276
527.8269	109.919
525.863	154.571
523.899	294.602
521.935	879
519.9696	1085.5
518.004	367.691
516.038	169.472
514.0722	116.08
512.106	90.4848
510.138	79.8728
508.169	75.7749
506.201	71.7025
504.231	69.73954
502.2598	69.2747
500.289	67.6642
498.317	65.3959
496.345	64.2345
494.372	63.7105
492.399	63.9781
490.426	63.4823
488.45	63.6405
486.476	64.1594
484.499	62.6833
482.524	61.4651
480.547	60.4656
478.569	61.091
476.59	61.5391
474.611	59.2561
472.6322	62.5338
470.653	64.761
468.672	63.9169
466.69	61.7476
464.709	61.3421
462.7254	62.4402
460.744	63.4232
458.759	63.7405
456.775	65.0162
454.7894	67.882
452.8038	68.0482
450.818	66.5352
448.831	66.4777
446.842	67.0697
444.8551	66.1725
442.867	64.3918
440.877	64.2366
438.886	66.0409
436.897	66.2544
434.906	64.92514
432.914	63.8715
430.922	63.703
428.929	65.4887
426.935	65.7909
424.94	64.3784
422.946	63.7036
420.949	63.1386
418.954	63.2006
416.957	63.2706
414.961	65.7442
412.962	68.40226
410.964	71.0514
408.964	78.7438
406.965	96.2378
404.9646	120.868
402.962	99.99
400.961	74.3539
398.958	67.5521
396.956	64.7341
394.951	63.1
392.949	61.348
390.944	61.1283
388.938	65.1988
386.932	75.6675
384.925	86.3141
382.918	88.0342
380.909	77.1981
378.901	69.3016
376.893	64.3179
374.882	62.111
372.871	61.42379
370.861	62.1249
368.849	63.1569
366.837	63.1712
364.824	61.8741
362.81	60.09697
360.796	59.6107
358.782	60.3249
356.765	59.9585
354.75	60.2618
352.734	61.30336
350.716	61.5301
348.698	60.9148
346.681	59.2822
344.661	58.4832
342.641	60.2296
340.621	61.9774
338.6	62.7599
336.577	62.3036
334.555	60.3596
332.5332	58.7389
330.509	58.3782
328.486	60.6903
326.46	61.9628
324.434	60.5753
322.41	58.4399
320.383	58.6096
318.356	60.295
316.328	62.7131
314.3	62.1958
312.269	59.46764
310.24	60.3886
308.2103	62.3859
306.178	62.3655
304.146	63.2331
302.115	63.8205
300.081	64.4309
298.048	63.3629
296.013	63.72197
293.979	63.7375
291.943	63.258
289.908	61.8202
287.872	61.0451
285.833	61.6017
283.796	61.044
281.7565	60.60619
279.719	58.56
277.678	56.79134
275.637	56.7634
273.596	58.3116
271.554	56.2863
269.512	55.8803
267.469	56.5459
265.426	57.1757
263.381	56.3982
261.337	54.8856
259.292	55.9216
257.245	57.3126
255.198	57.6902
253.1517	57.2533
251.103	56.714
249.054	56.2805
247.0052	56.033
244.955	55.8853
242.905	56.0531
240.853	55.8239
238.801	56.5068
236.748	57.3959
234.696	58.1105
232.641	58.0514
230.588	58.3938
228.533	56.89481
226.477	55.8184
224.42	55.2532
222.364	54.1885
220.306	53.4769
218.2486	54.5081
216.188	56.75634
214.13	57.5828
212.07	54.3921
210.0088	51.0523
207.947	52.0419
205.886	54.1656
203.8231	55.6814
201.7596	53.7125
199.696	51.1551
197.631	50.45113
195.5663	51.4013
193.501	53.3368
191.433	53.6583
189.367	52.7917
187.3	51.398
185.231	50.9747
183.161	51.5397
181.093	52.7896
179.022	51.9996
176.951	50.4185
174.879	48.8681
172.807	49.9702
170.735	51.742
168.662	50.4915
166.586	50.6194
164.512	51.4532
162.4359	52.4714
160.361	50.4989
158.284	48.416
156.206	48.6825
154.13	49.8387
152.051	50.0525
149.971	49.9453
147.892	49.6543
145.812	49.7345
143.729	48.3446
141.648	49.6798
139.566	53.5594
138.002	57.2332