Folder: physics-132/bartels lab/3642 MoS2 on 1012 WG/Raman_5_21_2015_Dominic/C3_R2/python files used/3642_8401x_3256y

File: 3642 8401x 3250y PL 600 T2 D1 100x.txt
1.77173	2704
1.772251	2732.26
1.77277	2755.99
1.7733	2779.74
1.77382	2793.88
1.77434	2801.06
1.774864	2821.51
1.77539	2852.531
1.77591	2882.31
1.77644	2891.95
1.77696	2883.65
1.77749	2890.69
1.77801	2916.18
1.778536	2949.04
1.77906	2970.29
1.77959	2978.7
1.78011	3002.1
1.78064	3036.06
1.78117	3070.38
1.7817	3073.7
1.78222	3067.45
1.782753	3063.84
1.78328	3074.2
1.78381	3098.87
1.78434	3121.45
1.78487	3148.71
1.7854	3171.42
1.78593	3193.8
1.78646	3208.9
1.78699	3218.34
1.78752	3239.446
1.78805	3248
1.78859	3267.99
1.78912	3299.87
1.78965	3337.21
1.79018	3364.39
1.79072	3389.38
1.79125	3419.175
1.79179	3450.81
1.79232	3461.05
1.79285	3489.94
1.79339	3535.45
1.79393	3582.3
1.79446	3614.73
1.795	3646
1.79553	3692.05
1.79607	3738.99
1.79661	3784.446
1.79715	3812.27
1.79768	3843.14
1.79822	3873.06
1.79876	3904.61
1.799299	3945.6
1.79984	3968.05
1.80038	3988.01
1.80092	4016.55
1.801458	4056.2
1.802	4084.37
1.80254	4115.22
1.803081	4129.502
1.80362	4165.7
1.80416	4205.92
1.80471	4226.97
1.80525	4226.93
1.80579	4236.12
1.80634	4250.72
1.80688	4262.88
1.80742	4297.12
1.80797	4314
1.80851	4335.812
1.80906	4349.98
1.8096	4383.4
1.81015	4421.74
1.8107	4455.78
1.81124	4493.31
1.81179	4536.28
1.81234	4584.7
1.81289	4631.42
1.81343	4677.29
1.81398	4745.1
1.81453	4792.67
1.81508	4825.65
1.815629	4942.26
1.81618	5026.12
1.81673	5073.2
1.81728	5129.73
1.81783	5161.88
1.81838	5234.81
1.81893	5330.82
1.81949	5413.19
1.82004	5475.24
1.82059	5499.77
1.82114	5531.07
1.8217	5595.63
1.82225	5645.09
1.8228	5697.42
1.82336	5746.05
1.82391	5792.79
1.82447	5825.06
1.82502	5846.4
1.82558	5884.86
1.82614	5903.17
1.82669	5932.14
1.82725	5977.59
1.82781	6027.47
1.82837	6064.293
1.82892	6101.76
1.82948	6141.35
1.83004	6190.35
1.8306	6228.104
1.83116	6279.13
1.83172	6326.17
1.83228	6380.312
1.83284	6414.35
1.8334	6487.31
1.833963	6575.64
1.83452	6658.62
1.83509	6721.01
1.83565	6788.29
1.83621	6859.14
1.83678	6916.78
1.83734	6982.61
1.8379	7048.45
1.83847	7128.91
1.83903	7209.85
1.8396	7298.43
1.84016	7362.82
1.84073	7417.03
1.84129	7482.89
1.84186	7521.36
1.84243	7567.75
1.843	7584.28
1.84356	7630.24
1.84413	7702.43
1.8447	7758.29
1.84527	7769.54
1.84584	7767.13
1.84641	7791.64
1.84698	7803.44
1.84755	7810.7
1.84812	7836.13
1.84869	7891.26
1.84926	7930.3
1.84983	7936.16
1.8504	7906.8
1.85098	7913.69
1.85155	7946.3
1.85212	7980.478
1.8527	7996.73
1.85327	7989.12
1.853846	8016.2
1.85442	8027.82
1.855	8007.94
1.85557	7980.38
1.85615	7965.98
1.85672	7988.78
1.8573	8005.97
1.85788	8008.22
1.85846	8001.47
1.859033	7992.09
1.85961	7964.896
1.86019	7936.51
1.86077	7911.23
1.86135	7899.04
1.86193	7875.584
1.86251	7831.66
1.863089	7799.08
1.86367	7803.28
1.86425	7784.78
1.864833	7756.19
1.86542	7691.43
1.866	7631.05
1.86658	7617.6
1.86716	7626.25
1.86775	7629.52
1.86833	7599.4
1.86892	7553.63
1.8695	7495.981
1.87009	7477.73
1.87067	7450.74
1.87126	7387.65
1.87184	7331.81
1.87243	7297.228
1.87302	7257.74
1.87361	7205.25
1.87419	7092.3
1.87478	7014.39
1.87537	7032.51
1.87596	6945.86
1.87655	6866.37
1.87714	6747.47
1.87773	6632.5
1.87832	6519.49
1.87891	6433.69
1.8795	6346.88
1.88009	6258.11
1.88069	6180.21
1.881279	6070.01
1.88187	5958.1
1.88247	5856.04
1.88306	5766.18
1.88365	5665.92
1.88425	5576.66
1.88484	5490.19
1.88544	5411.46
1.88603	5330.01
1.88663	5242.62
1.88723	5156.85
1.88782	5076.6
1.888422	4992.86
1.88902	4905.47
1.889618	4831.96
1.89022	4764.81
1.89082	4706.02
1.89142	4673.917
1.892015	4535.18
1.89262	4476.69
1.89322	4424.69
1.89382	4361.11
1.89442	4296.37
1.89502	4235.38
1.89562	4174.09
1.89623	4108
1.89683	4030.26
1.89743	3949.97
1.89804	3878.82
1.89864	3821.12
1.89924	3761.26
1.89985	3700.84
1.90046	3635.77
1.90106	3584.87
1.90167	3525.34
1.90227	3452.98
1.90288	3388.26
1.90349	3330.01
1.904097	3261.21
1.90471	3180.48
1.90531	3109.09
1.90592	3066.11
1.90653	3012.76
1.90714	2964.73
1.90775	2905
1.90836	2847.406
1.90898	2791.97
1.909587	2741.63
1.9102	2682.74
1.91081	2621.05
1.91142	2562.79
1.91204	2528.59
1.91265	2485.03
1.91327	2442.094
1.91388	2388.61
1.9145	2328.95
1.91511	2274.02
1.91573	2225.04
1.91634	2193.67
1.91681	2166.97

File: 3642 8401x 3250y Raman 1800 T2 D1 100x.txt
650.268	82.1289
648.343	80.1783
646.417	82.67
644.491	84.0158
642.564	83.1257
640.637	81.4336
638.71	77.7068
636.782	85.9531
634.852	84.817
632.9231	82.9279
630.992	81.1681
629.0625	81.9106
627.131	85.25473
625.198	83.9254
623.2655	81.2687
621.332	81.3424
619.3988	81.3893
617.465	82.2902
615.528	83.9204
613.594	82.78862
611.656	81.957
609.721	82.0705
607.783	82.6218
605.844	82.4936
603.9054	79.9726
601.966	79.7422
600.026	83.6839
598.0863	85.57222
596.146	84.5349
594.205	81.7406
592.261	79.4796
590.32	78.6088
588.375	78.6045
586.431	78.8827
584.486	77.8667
582.54	79.03775
580.594	81.1221
578.648	81.6547
576.701	79.3828
574.754	76.1513
572.805	76.8099
570.857	79.0733
568.906	80.7011
566.958	81.9869
565.006	83.7486
563.055	81.5117
561.103	79.2778
559.15	78.4908
557.197	79.729
555.244	81.2988
553.288	81.2289
551.334	80.1012
549.377	80.5315
547.422	82.7516
545.465	85.2513
543.507	87.0564
541.549	88.3644
539.59	89.1655
537.631	89.4262
535.671	91.8852
533.711	96.4362
531.751	102.094
529.788	108.391
527.8269	122.6336
525.863	163.119
523.899	266.124
521.935	829
519.9696	1039
518.004	371.348
516.038	179.048
514.0722	131.644
512.106	110.713
510.138	96.3839
508.169	90.4077
506.201	88.26725
504.231	84.8836
502.2598	81.6277
500.289	80.6811
498.317	82.7652
496.345	82.1461
494.372	79.7201
492.399	77.6074
490.426	77.1535
488.45	77.2549
486.476	76.597
484.499	76.9749
482.524	78.59465
480.547	79.8306
478.569	79.1004
476.59	78.0206
474.611	78.1407
472.6322	78.8397
470.653	79.3772
468.672	79.6499
466.69	80.3481
464.709	81.2354
462.7254	82.2938
460.744	83.4158
458.759	84.1176
456.775	83.869
454.7894	82.9808
452.8038	81.4756
450.818	80.3061
448.831	81.7647
446.842	81.0619
444.8551	82.2382
442.867	83.6514
440.877	86.3417
438.886	84.3256
436.897	81.3626
434.906	78.7561
432.914	78.7392
430.922	79.8078
428.929	80.3646
426.935	80.482
424.94	80.6799
422.946	79.5013
420.949	77.8863
418.954	78.0434
416.957	79.5852
414.961	83.1498
412.962	86.7066
410.964	90.7019
408.964	98.8601
406.965	112.56
404.9646	118.6041
402.962	106.664
400.961	89.3545
398.958	79.1972
396.956	79.4842
394.951	80.585
392.949	79.7041
390.944	79.4637
388.938	82.6944
386.932	89.9753
384.925	94.8716
382.918	95.4833
380.909	89.82093
378.901	82.4223
376.893	78.0611
374.882	78.0118
372.871	79.8943
370.861	78.862
368.849	76.8678
366.837	75.1076
364.824	76.4987
362.81	77.6806
360.796	77.19783
358.782	75.3289
356.765	74.56572
354.75	75.731
352.734	76.4535
350.716	75.2063
348.698	74.6642
346.681	76.914
344.661	75.3051
342.641	74.4775
340.621	76.6997
338.6	75.42289
336.577	74.551
334.555	73.7589
332.5332	75.0618
330.509	75.9624
328.486	73.98732
326.46	74.0133
324.434	77.14653
322.41	78.8153
320.383	75.694
318.356	74.9735
316.328	75.3404
314.3	77.0904
312.269	78.7909
310.24	79.3713
308.2103	78.947
306.178	78.3465
304.146	78.1002
302.115	78.1027
300.081	77.82518
298.048	77.1379
296.013	76.1344
293.979	74.5018
291.943	73.1655
289.908	72.9185
287.872	74.2611
285.833	77.0403
283.796	78.43782
281.7565	77.04818
279.719	75.6474
277.678	75.6863
275.637	75.69487
273.596	75.452
271.554	74.5543
269.512	72.6084
267.469	70.7145
265.426	69.1235
263.381	69.78717
261.337	70.8622
259.292	71.2826
257.245	70.7942
255.198	70.782
253.1517	72.8234
251.103	74.8005
249.054	71.6801
247.0052	69.8948
244.955	69.8407
242.905	71.348
240.853	72.6276
238.801	72.5899
236.748	71.15361
234.696	69.6907
232.641	69.9434
230.588	70.8248
228.533	71.3127
226.477	70.4644
224.42	69.61071
222.364	69.21772
220.306	69.47
218.2486	69.4829
216.188	69.2452
214.13	68.4233
212.07	67.7171
210.0088	67.3618
207.947	66.9427
205.886	66.1052
203.8231	64.1329
201.7596	63.9969
199.696	64.7169
197.631	65.0882
195.5663	65.5928
193.501	66.6119
191.433	67.1149
189.367	64.7961
187.3	62.5958
185.231	62.4794
183.161	64.89782
181.093	64.0215
179.022	62.62886
176.951	62.7912
174.879	64.6473
172.807	65.1152
170.735	63.3856
168.662	62.5009
166.586	63.9132
164.512	65.832
162.4359	64.7986
160.361	63.3779
158.284	62.521
156.206	64.5624
154.13	66.76902
152.051	66.06913
149.971	63.379
147.892	60.93338
145.812	61.1325
143.729	62.9927
141.648	65.91053
139.566	68.4658
138.002	66.7888

File: 3642 8401x 3296y PL 600 T2 D1 100x.txt
1.7708	2157.28
1.77132	2195.69
1.771839	2207.56
1.77236	2217.604
1.77288	2231.35
1.77341	2246.56
1.77393	2263.56
1.77445	2282.95
1.77497	2301.333
1.7755	2320.97
1.77602	2330.02
1.77655	2337.65
1.77707	2329.375
1.777596	2324.66
1.77812	2334.26
1.77865	2345.26
1.77917	2351.01
1.7797	2366.24
1.780226	2389.41
1.780753	2410.96
1.78128	2423.27
1.78181	2423.72
1.78234	2435.4
1.78286	2429.29
1.78339	2442.38
1.78392	2446.408
1.78445	2468.73
1.78498	2490.2
1.78551	2498.707
1.78604	2504.94
1.78657	2517.938
1.7871	2539.92
1.78764	2558.74
1.78817	2564.66
1.788699	2563.3
1.78923	2568.58
1.78976	2593.92
1.7903	2626.74
1.79083	2645.06
1.79136	2668.61
1.791899	2691.6
1.79243	2731.782
1.79297	2760.304
1.7935	2776.12
1.79404	2787.54
1.79458	2815.47
1.79511	2840.81
1.79565	2866.8
1.79618	2896.572
1.79672	2924.38
1.79726	2940.61
1.7978	2945.53
1.79834	2953.6
1.79887	2970.15
1.79941	2998.73
1.79995	3019.73
1.80049	3038.85
1.80103	3059.36
1.80157	3076.08
1.80211	3085.54
1.80265	3094.15
1.8032	3117.7
1.803738	3138.61
1.80428	3143.16
1.80482	3141.105
1.80537	3143.45
1.80591	3177.39
1.80645	3189.1
1.807	3187.26
1.80754	3191.87
1.808085	3204.7
1.80863	3222.66
1.80918	3241.21
1.80972	3270.88
1.81027	3304.83
1.81081	3326.57
1.81136	3338.374
1.81191	3155.56
1.81245	3373.834
1.813	3391.02
1.81355	3435.45
1.8141	3473.08
1.81465	3515.24
1.815197	3561.45
1.81575	3605.1
1.8163	3648.88
1.81685	3686.75
1.8174	3729.55
1.81795	3761.8
1.8185	3783.21
1.81905	3807.76
1.8196	3849.18
1.82016	3916.15
1.82071	3961.38
1.82126	3982.78
1.82182	4012.59
1.822369	4051.43
1.82292	4080.36
1.82348	4088.196
1.82403	4105.97
1.82459	4145.33
1.82514	4175.875
1.8257	4191.64
1.82626	4177.49
1.82681	4182.72
1.82737	4208.26
1.82793	4231.48
1.82849	4245.34
1.82904	4267.66
1.8296	4281.56
1.830161	4298.57
1.83072	4320.65
1.83128	4350.41
1.83184	4398.99
1.8324	4436.02
1.83296	4461.99
1.83352	4495.64
1.83408	4544.28
1.83465	4593.27
1.83521	4621.71
1.83577	4651.72
1.83633	4729.67
1.8369	4742.69
1.83746	4776.73
1.83802	4805.62
1.83859	4844.28
1.83915	4895.93
1.83972	4952.33
1.84028	4982.9
1.84085	5013.32
1.841417	5040.14
1.84198	5066.84
1.84255	5081.67
1.84312	5103.55
1.84369	5115.29
1.844254	5131.54
1.84482	5144.14
1.84539	5132.61
1.84596	5129.03
1.84653	5151.15
1.8471	5183.73
1.84767	5186.76
1.84824	5172
1.84881	5167.34
1.84938	5153.18
1.84996	5160.53
1.85053	5170.9
1.8511	5201.42
1.85167	5228.86
1.85225	5226.07
1.85282	5213.269
1.8534	5209.87
1.85397	5211.87
1.85455	5208.67
1.85512	5193.61
1.8557	5190.85
1.85627	5196.45
1.85685	5209.603
1.85743	5203.8
1.858	5187.15
1.85858	5156.64
1.85916	5139.19
1.85974	5128.63
1.86032	5102.39
1.86089	5054.08
1.86147	5007.52
1.862054	5003.41
1.86263	5019.14
1.86322	5014.45
1.8638	5010.72
1.86438	4984.39
1.86496	4948.55
1.86554	4915.34
1.86612	4893.96
1.86671	4881.86
1.86729	4865.57
1.86787	4856.87
1.86846	4841.08
1.86904	4821.09
1.86963	4800.06
1.870213	4775.93
1.8708	4750.416
1.87138	4725.16
1.87197	4698.52
1.87256	4662.96
1.87315	4637.82
1.87373	4616.57
1.87432	4569.01
1.87491	4506.49
1.8755	4455.28
1.87609	4402.54
1.87668	4361.15
1.87727	4319.28
1.87786	4264.43
1.87845	4198.61
1.87904	4145.89
1.87963	4089.6
1.88022	4025.49
1.88082	3956.12
1.88141	3893.79
1.882	3841.23
1.8826	3781.67
1.88319	3723.96
1.88378	3674.98
1.88438	3634.39
1.88497	3590.56
1.88557	3530.16
1.88616	3467.19
1.88676	3398.77
1.88736	3380.02
1.887955	3356.832
1.88855	3298.86
1.88915	3256.64
1.88975	3209.886
1.89035	3165.085
1.89095	3113.06
1.89155	3065.72
1.89215	3026.46
1.89275	2994.58
1.89335	2975.21
1.89395	2930.53
1.89455	2877.62
1.895152	2836.79
1.89575	2807.87
1.89636	2762.72
1.89696	2711.438
1.89756	2683.45
1.89817	2661.2
1.89877	2626.37
1.899377	2566.61
1.89998	2516.82
1.90059	2487.22
1.90119	2465.4
1.9018	2439.36
1.90241	2396.52
1.90301	2356.22
1.903622	2314.57
1.90423	2274.93
1.90484	2235.58
1.90545	2204.08
1.90606	2177.32
1.90667	2152.13
1.90728	2113.69
1.90789	2062.07
1.9085	2022.92
1.90911	2005.33
1.90972	1993.65
1.91033	1956.2
1.910946	1908.22
1.911559	1865.61
1.91217	1834.293
1.91279	1822.39
1.9134	1804.65
1.91402	1778.17
1.91463	1743.04
1.91525	1702.146
1.91571	1668.71

File: 3642 8401x 3296y Raman 1800 T2 D1 100x.txt
650.268	52.5425
648.343	52.1419
646.417	53.2159
644.491	54.3006
642.564	54.4054
640.637	54.7984
638.71	55.9327
636.782	56.9733
634.852	54.4929
632.9231	51.4358
630.992	53.4367
629.0625	56.0829
627.131	57.5496
625.198	57.3735
623.2655	57.67136
621.332	58.6825
619.3988	58.1081
617.465	56.2464
615.528	54.022
613.594	54.175
611.656	56.3284
609.721	57.7497
607.783	57.31184
605.844	56.7312
603.9054	56.1583
601.966	55.9979
600.026	57.3847
598.0863	57.1509
596.146	56.74408
594.205	56.4737
592.261	55.9017
590.32	54.1734
588.375	55.6517
586.431	55.3032
584.486	51.8654
582.54	51.605
580.594	54.5276
578.648	57.3468
576.701	56.2351
574.754	54.4545
572.805	54.2115
570.857	54.5788
568.906	53.7148
566.958	52.5033
565.006	52.9178
563.055	55.3355
561.103	56.9597
559.15	56.7603
557.197	55.3423
555.244	56.03714
553.288	57.2189
551.334	58.16061
549.377	57.7938
547.422	59.4529
545.465	61.6053
543.507	62.5655
541.549	62.3793
539.59	63.39325
537.631	65.4939
535.671	71.1337
533.711	78.65081
531.751	86.427
529.788	94.22332
527.8269	110.5041
525.863	164.142
523.899	344.47
521.935	1048
519.9696	1453.19
518.004	462.057
516.038	196.567
514.0722	133.508
512.106	102.251
510.138	85.2151
508.169	77.4624
506.201	73.81105
504.231	70.5404
502.2598	65.5725
500.289	63.1073
498.317	63.2617
496.345	64.245
494.372	61.8593
492.399	60.7035
490.426	61.20377
488.45	61.5354
486.476	58.8118
484.499	57.5155
482.524	57.903
480.547	57.3946
478.569	56.55
476.59	55.8496
474.611	56.8778
472.6322	58.8945
470.653	60.3225
468.672	60.8192
466.69	58.1373
464.709	56.5849
462.7254	59.2916
460.744	56.469
458.759	59.1253
456.775	59.4588
454.7894	59.3062
452.8038	59.1124
450.818	61.8638
448.831	62.8602
446.842	61.5992
444.8551	59.4497
442.867	58.0723
440.877	60.2383
438.886	61.8332
436.897	61.6368
434.906	62.0782
432.914	62.3052
430.922	61.6091
428.929	59.4107
426.935	59.6981
424.94	60.75341
422.946	60.711
420.949	60.2388
418.954	61.3521
416.957	60.2704
414.961	61.2328
412.962	65.7219
410.964	74.9813
408.964	90.0064
406.965	103.267
404.9646	102.553
402.962	87.0095
400.961	71.2085
398.958	61.1669
396.956	59.06649
394.951	59.6652
392.949	61.127
390.944	62.01981
388.938	64.08
386.932	69.8694
384.925	75.7905
382.918	76.3074
380.909	71.0051
378.901	65.695
376.893	62.1371
374.882	59.3804
372.871	60.0916
370.861	60.9577
368.849	59.5653
366.837	56.9414
364.824	55.2212
362.81	59.50737
360.796	58.515
358.782	58.0966
356.765	58.3497
354.75	59.4268
352.734	59.5929
350.716	58.182
348.698	59.28067
346.681	59.7935
344.661	58.9821
342.641	57.5975
340.621	57.4191
338.6	58.993
336.577	58.7782
334.555	57.6985
332.5332	56.3971
330.509	57.1783
328.486	59.23296
326.46	61.0382
324.434	60.5448
322.41	58.3089
320.383	59.9097
318.356	61.956
316.328	62.9081
314.3	61.6516
312.269	62.0569
310.24	63.13195
308.2103	63.99828
306.178	66.5887
304.146	68.0292
302.115	67.4535
300.081	66.0744
298.048	64.8928
296.013	62.135
293.979	61.334
291.943	61.1692
289.908	61.2116
287.872	61.7625
285.833	59.47739
283.796	59.0126
281.7565	57.4841
279.719	63.0626
277.678	59.1166
275.637	58.85
273.596	57.6975
271.554	56.257
269.512	54.9884
267.469	55.42815
265.426	57.03981
263.381	57.4357
261.337	55.7949
259.292	55.64439
257.245	55.6742
255.198	55.207
253.1517	53.7259
251.103	53.0568
249.054	54.5236
247.0052	55.6144
244.955	54.6861
242.905	53.7016
240.853	53.7064
238.801	54.4862
236.748	54.8109
234.696	55.4639
232.641	55.9612
230.588	55.08033
228.533	53.8294
226.477	53.0423
224.42	53.3469
222.364	53.844
220.306	52.4216
218.2486	52.3512
216.188	51.99609
214.13	51.1575
212.07	49.7028
210.0088	49.5664
207.947	51.2028
205.886	52.2397
203.8231	50.2739
201.7596	48.60844
199.696	47.97612
197.631	49.6885
195.5663	49.8879
193.501	47.9035
191.433	51.2664
189.367	49.7826
187.3	49.6034
185.231	48.70134
183.161	48.4316
181.093	49.5352
179.022	51.652
176.951	50.7871
174.879	50.97546
172.807	50.60582
170.735	49.9129
168.662	47.448
166.586	46.7623
164.512	47.8018
162.4359	49.2802
160.361	49.8012
158.284	50.0693
156.206	49.7561
154.13	48.5481
152.051	47.2569
149.971	46.6783
147.892	47.7694
145.812	48.2102
143.729	48.1947
141.648	47.9601
139.566	46.6575
138.002	49.6767

File: 3642 8432x 3298y Pl 600 T2 D1 100x.txt
1.78927	3319.72
1.7898	3423.25
1.79033	3410.054
1.79086	3396.38
1.7914	3483.28
1.79193	3494.27
1.79247	3484.15
1.793	3538.02
1.79353	3558.17
1.79407	3562.25
1.794605	3618.57
1.79514	3658.45
1.79568	3670.04
1.79621	3696.76
1.79675	3728.01
1.79729	3754.54
1.79782	3767.5
1.79836	3794.63
1.798901	3843.96
1.79944	3864.84
1.79998	3880.15
1.80052	3897.36
1.80106	3901.39
1.8016	3915.39
1.80214	3941.49
1.80268	3968.36
1.803219	3991.28
1.80376	3996.31
1.8043	4004.05
1.80484	4021.51
1.80539	4029.29
1.80593	4030.78
1.80647	4053.96
1.80702	4080.93
1.80756	4095.98
1.8081	4101.84
1.80865	4110.39
1.80919	4118.6
1.80974	4140.71
1.81028	4185.2
1.81083	4230.15
1.81138	4256.22
1.81192	4265.16
1.81247	4289.65
1.81302	4327.66
1.81356	4358.16
1.81411	4392.418
1.81466	4438.68
1.81521	4493.28
1.81576	4549.28
1.81631	4603.76
1.81686	4632.73
1.81741	4677.79
1.817959	4757.16
1.81851	4821.51
1.819061	4836.67
1.81961	4876.25
1.82016	4934.13
1.82072	4974.71
1.82127	5014.94
1.82182	5061.36
1.82238	5103.97
1.82293	5137.46
1.82348	5163.05
1.82404	5178.35
1.82459	5184.13
1.82515	5198.3
1.8257	5212.377
1.82626	5225.6
1.82682	5238.55
1.82737	5261.04
1.82793	5301
1.82849	5332.61
1.82905	5353.84
1.8296	5369.125
1.830162	5402.18
1.83072	5447.42
1.83128	5458.14
1.83184	5456.14
1.8324	5523.37
1.83296	5597.65
1.83352	5641.61
1.83408	5666.54
1.83464	5700.314
1.835205	5738.65
1.83577	5781.877
1.83633	5838.72
1.83689	5887.39
1.83746	5920.46
1.83802	5946.78
1.83858	5974.87
1.83915	6047.22
1.83971	6129.81
1.84028	6200.43
1.84084	6226.45
1.84141	6248.9
1.84198	6286.64
1.84254	6317.67
1.843109	6317.5
1.84368	6327.47
1.84424	6339.438
1.84481	6375.29
1.84538	6393.48
1.84595	6412.84
1.84652	6427.34
1.84709	6423.31
1.84766	6425.38
1.84823	6445.24
1.8488	6470.36
1.84937	6463.42
1.84994	6438.71
1.85051	6464.92
1.85109	6513.08
1.85166	6525.16
1.85223	6491.34
1.85281	6474.311
1.853379	6478.69
1.853953	6478.08
1.85453	6457.05
1.8551	6437.52
1.85568	6471.53
1.85625	6491.09
1.85683	6477.49
1.85741	6422.37
1.85798	6426.74
1.85856	6457.18
1.85914	6457.2
1.85972	6423.49
1.86029	6383.74
1.86087	6379.5
1.86145	6347.39
1.862031	6306.26
1.86261	6304.02
1.863191	6290.72
1.86377	6269.68
1.86435	6258.96
1.86493	6251.002
1.86552	6234.99
1.8661	6224.41
1.86668	6209.12
1.86726	6180.8
1.867847	6159.92
1.86843	6133.21
1.86901	6105.56
1.8696	6067.42
1.87018	6040.84
1.87077	6029.24
1.87136	6022.853
1.87194	5994.27
1.87253	5934.96
1.87311	5861.24
1.8737	5831.248
1.87429	5825.53
1.87488	5789.67
1.87547	5731.85
1.87605	5663.3
1.87664	5598.53
1.87723	5539.7
1.87782	5488.03
1.87841	5443.43
1.879	5391.09
1.8796	5311.95
1.88019	5195.35
1.88078	5087.54
1.88137	5063.061
1.88196	4967.63
1.88256	4899.17
1.88315	4834.19
1.88375	4769.999
1.88434	4695.87
1.88493	4634.53
1.88553	4584.31
1.88612	4546.38
1.88672	4505.89
1.88732	4442
1.88791	4352.48
1.88851	4285.44
1.88911	4253.19
1.88971	4203.12
1.8903	4156.53
1.8909	4124.85
1.8915	4056.73
1.892102	4000.76
1.8927	3954.39
1.8933	3921.24
1.8939	3884.865
1.8945	3829.79
1.89511	3755.04
1.89571	3692.7
1.89631	3654.93
1.89691	3633.36
1.89752	3592.23
1.89812	3531.85
1.89872	3462.23
1.89933	3409.08
1.899933	3359.49
1.90054	3331.56
1.90114	3294.43
1.90175	3242.09
1.90236	3186.82
1.90296	3137.07
1.90357	3090.21
1.90418	3040.1
1.90479	2994.49
1.90539	2953.83
1.906	2909.23
1.90661	2860.82
1.90722	2810.21
1.90783	2774.42
1.90844	2732.22
1.90905	2687.31
1.90967	2652.54
1.91028	2626.99
1.91089	2571.52
1.9115	2497.32
1.91212	2470.95
1.91273	2428.04
1.91334	2400.82
1.913957	2371.35
1.91457	2327.93
1.91519	2270.81
1.9158	2227.97
1.91642	2205.814
1.91703	2181.18
1.91765	2149.12
1.91827	2118.38
1.91889	2094.94
1.9195	2058.67
1.92012	2032.02
1.92074	2017.96
1.92136	2009.575
1.92198	1992.45
1.9226	1962.27
1.92322	1927.71
1.92384	1906.61
1.924464	1896.17
1.92509	1894.31
1.92571	1876.56
1.92633	1855.57
1.926954	1845.9
1.92758	1837.41
1.9282	1809.52
1.928826	1788.03
1.92945	1773.38
1.930076	1759.54
1.9307	1729.3
1.93133	1705.41
1.93195	1685.1
1.93258	1657.53
1.93321	1631.16
1.93384	1608.8
1.93446	1592.24
1.93509	1576.21
1.93572	1554
1.93635	1534.73
1.936982	1507.46
1.93745	1505.06

File: 3642 8432x 3298y Raman 1800 T2 D1 100x.txt
650.268	59.617
648.343	60.5788
646.417	60.5918
644.491	60.6373
642.564	60.7285
640.637	60.6949
638.71	60.6388
636.782	60.6585
634.852	60.9408
632.9231	60.4789
630.992	62.511
629.0625	60.7764
627.131	61.0645
625.198	61.6544
623.2655	63.0718
621.332	63.5246
619.3988	62.49641
617.465	61.5247
615.528	60.8257
613.594	61.10603
611.656	62.7321
609.721	63.3351
607.783	61.9466
605.844	58.4757
603.9054	60.6551
601.966	62.3488
600.026	62.5629
598.0863	61.32534
596.146	60.4008
594.205	62.0535
592.261	64.111
590.32	62.6546
588.375	60.13525
586.431	62.2979
584.486	62.0714
582.54	59.2376
580.594	54.06995
578.648	54.22823
576.701	58.05809
574.754	59.0426
572.805	56.9308
570.857	58.1219
568.906	60.6203
566.958	60.9577
565.006	60.1214
563.055	59.0752
561.103	58.7816
559.15	58.5935
557.197	58.5501
555.244	59.5896
553.288	61.2985
551.334	62.9128
549.377	63.0988
547.422	63.4897
545.465	65.4948
543.507	67.7229
541.549	68.5241
539.59	67.7933
537.631	70.1755
535.671	73.4579
533.711	75.6153
531.751	82.2008
529.788	92.6874
527.8269	115.562
525.863	162.0289
523.899	323.289
521.935	963.936
519.9696	1125
518.004	373.032
516.038	171.542
514.0722	119.886
512.106	95.3065
510.138	83.7367
508.169	74.3829
506.201	69.9325
504.231	68.7332
502.2598	67.9905
500.289	66.9378
498.317	65.7636
496.345	64.3568
494.372	63.054
492.399	62.1073
490.426	61.5356
488.45	61.6842
486.476	61.9463
484.499	62.7076
482.524	63.3128
480.547	61.924
478.569	59.8121
476.59	58.3846
474.611	58.7042
472.6322	60.5258
470.653	62.5965
468.672	63.1794
466.69	62.6038
464.709	62.1778
462.7254	63.4565
460.744	64.8466
458.759	66.01696
456.775	66.3479
454.7894	66.37899
452.8038	65.65683
450.818	64.6736
448.831	64.0359
446.842	64.5652
444.8551	65.1396
442.867	64.8534
440.877	64.27137
438.886	65.0718
436.897	66.5933
434.906	65.4965
432.914	63.72665
430.922	62.36937
428.929	62.3131
426.935	63.7293
424.94	65.3182
422.946	65.727
420.949	65.5847
418.954	65.3458
416.957	66.4016
414.961	70.0387
412.962	71.2879
410.964	74.4965
408.964	81.2484
406.965	92.7403
404.9646	104.67
402.962	87.6933
400.961	72.2978
398.958	64.2165
396.956	62.8356
394.951	63.47995
392.949	63.9384
390.944	63.9582
388.938	65.7597
386.932	73.24955
384.925	84.382
382.918	80.3536
380.909	71.18734
378.901	66.1434
376.893	62.4665
374.882	62.1802
372.871	63.5574
370.861	64.69976
368.849	63.1815
366.837	61.7225
364.824	60.5593
362.81	59.8195
360.796	59.5836
358.782	60.0032
356.765	60.9651
354.75	62.024
352.734	62.3477
350.716	61.3897
348.698	59.7066
346.681	59.3732
344.661	61.468
342.641	61.8003
340.621	60.58
338.6	57.6409
336.577	58.4291
334.555	61.0597
332.5332	63.19125
330.509	62.4056
328.486	60.4796
326.46	59.54903
324.434	59.643
322.41	61.4583
320.383	62.1025
318.356	62.8494
316.328	63.4911
314.3	64.5326
312.269	65.6505
310.24	66.4263
308.2103	66.6285
306.178	65.9281
304.146	65.7284
302.115	65.5651
300.081	65.17
298.048	64.5334
296.013	63.7372
293.979	62.9258
291.943	62.0415
289.908	62.4363
287.872	62.9454
285.833	63.06274
283.796	62.4941
281.7565	61.6243
279.719	60.4739
277.678	59.8102
275.637	59.675
273.596	58.8065
271.554	56.5139
269.512	55.5036
267.469	57.5283
265.426	58.8267
263.381	58.7995
261.337	57.5445
259.292	56.2895
257.245	55.9525
255.198	55.7413
253.1517	56.2635
251.103	56.72966
249.054	57.18021
247.0052	56.9849
244.955	56.5195
242.905	56.1647
240.853	56.9404
238.801	58.0579
236.748	58.0704
234.696	57.0112
232.641	56.4695
230.588	57.71133
228.533	58.5146
226.477	57.438
224.42	56.0892
222.364	54.8132
220.306	54.1137
218.2486	53.8241
216.188	53.7226
214.13	53.7102
212.07	52.76939
210.0088	51.2815
207.947	50.3449
205.886	51.677
203.8231	54.2203
201.7596	55.5676
199.696	54.1751
197.631	52.7892
195.5663	52.76535
193.501	51.0755
191.433	50.57
189.367	52.2162
187.3	52.56641
185.231	53.4607
183.161	52.3891
181.093	51.5716
179.022	50.9025
176.951	50.6665
174.879	50.621
172.807	50.9247
170.735	51.6234
168.662	52.5809
166.586	53.2994
164.512	52.4051
162.4359	50.0361
160.361	48.45187
158.284	48.8333
156.206	49.6845
154.13	50.7617
152.051	50.7945
149.971	50.1319
147.892	49.7054
145.812	51.3666
143.729	53.856
141.648	54.9314
139.566	53.7085
138.002	48.32629