Folder: physics-132/bartels lab/3642 MoS2 on 1012 WG/raman1_dominic/R1_c1

File: 3642 waveguide 2881x 2304y Raman 1800 d1 t2 100x.txt
650.268	75.063
648.343	71.026
646.417	73.0932
644.491	72.6562
642.564	71.4448
640.637	72.5627
638.71	73.7477
636.782	74.5509
634.852	75.2571
632.9231	75.7646
630.992	75.9933
629.0625	75.9647
627.131	75.7622
625.198	77.56324
623.2655	78.0042
621.332	77.1773
619.3988	75.7656
617.465	75.4893
615.528	76.9971
613.594	77.06636
611.656	75.7554
609.721	74.427
607.783	74.6333
605.844	71.6433
603.9054	69.6078
601.966	70.6966
600.026	73.1868
598.0863	74.47641
596.146	74.0078
594.205	72.5034
592.261	71.8217
590.32	72.648
588.375	74.3402
586.431	74.7545
584.486	73.08979
582.54	71.8135
580.594	71.8116
578.648	72.6227
576.701	72.8781
574.754	72.7873
572.805	72.7491
570.857	72.6146
568.906	72.4125
566.958	72.2869
565.006	72.3605
563.055	72.32019
561.103	72.4272
559.15	72.831
557.197	74.1528
555.244	76.2664
553.288	77.1272
551.334	76.69632
549.377	76.1985
547.422	77.7479
545.465	81.1446
543.507	84.8905
541.549	83.9746
539.59	81.47702
537.631	84.74305
535.671	88.5343
533.711	93.2305
531.751	98.6973
529.788	111.517
527.8269	130.773
525.863	180.178
523.899	330.773
521.935	1009.39
519.9696	1507
518.004	515.077
516.038	243.5677
514.0722	170.47
512.106	127.998
510.138	107.216
508.169	95.942
506.201	88.9165
504.231	87.705
502.2598	86.6116
500.289	81.9587
498.317	78.6
496.345	77.2111
494.372	75.3873
492.399	75.0929
490.426	75.0887
488.45	74.9774
486.476	74.2773
484.499	72.7708
482.524	71.3864
480.547	70.7344
478.569	70.5185
476.59	70.6542
474.611	71.38427
472.6322	72.6654
470.653	73.642
468.672	73.68325
466.69	74.2224
464.709	75.1782
462.7254	75.7234
460.744	74.9847
458.759	71.931
456.775	75.2028
454.7894	76.1167
452.8038	76.7726
450.818	76.8479
448.831	77.5658
446.842	75.7622
444.8551	75.8298
442.867	74.7347
440.877	74.7785
438.886	75.4055
436.897	75.9499
434.906	74.56115
432.914	75.17157
430.922	77.6193
428.929	77.0712
426.935	75.9659
424.94	77.1005
422.946	78.0665
420.949	76.36351
418.954	74.05793
416.957	73.9006
414.961	76.6023
412.962	77.3645
410.964	76.0125
408.964	77.4558
406.965	82.7032
404.9646	83.3156
402.962	78.93689
400.961	75.06012
398.958	73.3093
396.956	72.5416
394.951	72.4293
392.949	72.8389
390.944	74.5813
388.938	76.2747
386.932	76.65966
384.925	76.6743
382.918	76.4013
380.909	75.6894
378.901	73.9599
376.893	71.692
374.882	70.2978
372.871	71.61174
370.861	73.0612
368.849	73.037
366.837	72.9499
364.824	72.8613
362.81	73.0692
360.796	72.9784
358.782	72.5356
356.765	72.0347
354.75	71.9648
352.734	73.0896
350.716	74.038
348.698	73.3088
346.681	71.6594
344.661	70.2561
342.641	69.9757
340.621	70.5314
338.6	71.5388
336.577	72.3096
334.555	71.385
332.5332	70.0058
330.509	75.5095
328.486	70.944
326.46	69.42
324.434	70.0974
322.41	72.1736
320.383	71.8997
318.356	71.4483
316.328	73.6778
314.3	78.6759
312.269	79.4924
310.24	76.2284
308.2103	73.3251
306.178	74.20649
304.146	77.6539
302.115	81.1732
300.081	79.7733
298.048	74.92852
296.013	72.4635
293.979	73.6079
291.943	74.815
289.908	74.6764
287.872	73.9408
285.833	72.7112
283.796	71.4622
281.7565	70.8728
279.719	71.14286
277.678	71.3571
275.637	70.7428
273.596	70.2553
271.554	70.9193
269.512	72.0581
267.469	71.5394
265.426	69.12323
263.381	66.8583
261.337	67.4662
259.292	69.5515
257.245	70.8401
255.198	70.1612
253.1517	67.1047
251.103	66.3759
249.054	66.9569
247.0052	69.4844
244.955	71.0264
242.905	70.8224
240.853	70.1434
238.801	68.9438
236.748	67.3206
234.696	65.9946
232.641	65.5889
230.588	65.8295
228.533	66.627
226.477	67.2439
224.42	67.3337
222.364	65.8534
220.306	63.7586
218.2486	61.89859
216.188	61.3921
214.13	62.0507
212.07	62.9839
210.0088	62.8317
207.947	62.4709
205.886	62.1575
203.8231	61.90448
201.7596	61.22533
199.696	60.5952
197.631	60.1264
195.5663	60.0432
193.501	60.7778
191.433	62.4339
189.367	64.0658
187.3	63.6602
185.231	62.3414
183.161	61.503
181.093	61.70311
179.022	62.1498
176.951	61.82436
174.879	62.1949
172.807	62.7323
170.735	62.7731
168.662	61.2205
166.586	59.4968
164.512	59.21611
162.4359	59.3464
160.361	59.5778
158.284	59.5725
156.206	59.4274
154.13	59.0774
152.051	58.7668
149.971	58.777
147.892	60.3405
145.812	61.47
143.729	59.5216
141.648	56.2345
139.566	56.8758
138.002	65.778

File: 3642 waveguide 2881x 2307y Raman 1800 d1 t2 100x.txt
650.268	60.1647
648.343	59.9305
646.417	59.6602
644.491	60.8433
642.564	62.1762
640.637	61.9547
638.71	59.1371
636.782	57.0319
634.852	59.6604
632.9231	63.1896
630.992	64.334
629.0625	63.4355
627.131	62.0587
625.198	61.0426
623.2655	60.6879
621.332	61.0506
619.3988	62.3917
617.465	64.6112
615.528	63.4348
613.594	60.69289
611.656	61.75127
609.721	61.5786
607.783	60.867
605.844	60.21349
603.9054	60.6415
601.966	60.9857
600.026	61.0587
598.0863	60.13216
596.146	59.08033
594.205	57.9054
592.261	57.0089
590.32	57.5651
588.375	58.0973
586.431	56.9911
584.486	54.6831
582.54	54.8364
580.594	57.1247
578.648	57.50462
576.701	56.5305
574.754	56.41766
572.805	57.2477
570.857	58.6277
568.906	59.6153
566.958	58.85038
565.006	58.3189
563.055	60.3354
561.103	62.4074
559.15	62.4551
557.197	62.0391
555.244	62.9558
553.288	63.2504
551.334	60.6959
549.377	57.6795
547.422	63.3989
545.465	67.0321
543.507	68.1066
541.549	68.21357
539.59	67.2555
537.631	70.0945
535.671	75.1081
533.711	83.5745
531.751	91.1846
529.788	101.536
527.8269	125.777
525.863	179.064
523.899	344.243
521.935	1066.6
519.9696	1796.25
518.004	605
516.038	248.812
514.0722	151.381
512.106	110.412
510.138	94.3918
508.169	83.2089
506.201	76.99897
504.231	72.475
502.2598	68.4081
500.289	64.8187
498.317	62.7831
496.345	66.33342
494.372	68.5812
492.399	64.7097
490.426	60.1386
488.45	60.3288
486.476	63.5484
484.499	64.6331
482.524	63.34639
480.547	61.5561
478.569	60.7629
476.59	60.4306
474.611	60.2189
472.6322	59.74918
470.653	59.6753
468.672	59.74234
466.69	59.753
464.709	59.6253
462.7254	62.4062
460.744	62.4189
458.759	60.7661
456.775	61.4882
454.7894	62.8687
452.8038	61.41106
450.818	61.6451
448.831	63.0586
446.842	63.5066
444.8551	62.3724
442.867	60.7015
440.877	60.3893
438.886	62.157
436.897	64.0066
434.906	64.7926
432.914	64.25782
430.922	63.4939
428.929	62.798
426.935	62.284
424.94	61.8796
422.946	61.6489
420.949	61.8233
418.954	62.715
416.957	63.8568
414.961	64.3097
412.962	62.7614
410.964	61.1184
408.964	64.2118
406.965	70.9326
404.9646	77.0925
402.962	71.2489
400.961	65.1832
398.958	62.569
396.956	61.9816
394.951	62.0617
392.949	62.2951
390.944	62.7784
388.938	63.7395
386.932	65.9158
384.925	67.7325
382.918	65.7834
380.909	62.4563
378.901	60.611
376.893	60.2871
374.882	60.1394
372.871	59.1918
370.861	58.6537
368.849	59.0153
366.837	59.7519
364.824	59.9726
362.81	59.6915
360.796	59.4145
358.782	59.9288
356.765	60.2167
354.75	59.9117
352.734	60.2563
350.716	59.0851
348.698	61.8371
346.681	63.0788
344.661	59.9014
342.641	57.6617
340.621	56.7394
338.6	57.7941
336.577	59.9211
334.555	60.8142
332.5332	60.2952
330.509	60.3117
328.486	60.7157
326.46	61.2471
324.434	61.7833
322.41	62.2302
320.383	62.5524
318.356	62.7808
316.328	62.8524
314.3	62.5902
312.269	62.4128
310.24	62.6452
308.2103	64.9801
306.178	67.5273
304.146	67.95211
302.115	68.1111
300.081	69.0835
298.048	71.309
296.013	69.0715
293.979	67.1059
291.943	63.927
289.908	62.1241
287.872	62.5123
285.833	64.9471
283.796	64.6692
281.7565	64.3073
279.719	64.1542
277.678	63.60685
275.637	61.7849
273.596	59.7725
271.554	60.306
269.512	62.8237
267.469	60.3278
265.426	54.6251
263.381	58.7018
261.337	56.2712
259.292	55.3068
257.245	57.494
255.198	57.0381
253.1517	56.4934
251.103	57.7302
249.054	58.3783
247.0052	58.38023
244.955	58.1317
242.905	57.7399
240.853	57.2314
238.801	56.4282
236.748	54.8372
234.696	52.9606
232.641	53.9703
230.588	56.28326
228.533	56.9989
226.477	55.5588
224.42	54.1748
222.364	53.0365
220.306	52.111
218.2486	51.52179
216.188	51.2275
214.13	51.11034
212.07	51.2008
210.0088	51.5337
207.947	52.0503
205.886	51.2643
203.8231	49.4176
201.7596	52.2754
199.696	51.9779
197.631	51.6932
195.5663	51.6964
193.501	52.1889
191.433	52.9782
189.367	53.0392
187.3	50.8988
185.231	50.0801
183.161	50.14399
181.093	49.8187
179.022	49.004
176.951	48.7504
174.879	50.4096
172.807	49.8635
170.735	48.9635
168.662	49.9196
166.586	50.9935
164.512	50.8147
162.4359	49.68829
160.361	49.1145
158.284	50.0527
156.206	50.6533
154.13	50.3435
152.051	50.038
149.971	50.31139
147.892	50.80505
145.812	50.7989
143.729	49.4889
141.648	47.6959
139.566	47.61224
138.002	50.7899