Folder: physics-132/bartels lab/3642 MoS2 on 1012 WG/raman1_dominic/R2_C1

Note: bartels lab/3642 MoS2 on 1012 WG/raman1_dominic/R2_C1/3642 R2C1 waveguide 2928x 4380y PL 600 t2 d1 100x.txt
1.7892661	2364.866
1.7893994	2380.4719
1.7895323	2393.7227
1.7896655	2403.2627
1.7897985	2411.1702
1.7899318	2419.281
1.7900648	2426.7615
1.790198	2433.3945
1.7903312	2439.0044
1.7904644	2443.6824
1.7905977	2445.125
1.790731	2445.0806
1.7908642	2445.1313
1.7909976	2446.1636
1.7911309	2447.0959
1.7912642	2448.1348
1.7913977	2449.3628
1.791531	2450.8525
1.7916645	2452.6812
1.7917979	2454.4377
1.7919314	2456.2065
1.7920648	2458.0754
1.7921984	2460.5796
1.7923318	2463.8906
1.7924654	2467.8188
1.792599	2472.561
1.7927326	2476.9673
1.7928661	2480.9636
1.7929999	2484.344
1.7931334	2487.6582
1.7932671	2491.1665
1.7934008	2495.3193
1.7935345	2499.4556
1.7936683	2504.0364
1.793802	2508.6648
1.7939358	2513.1802
1.7940696	2517.74
1.7942034	2522.175
1.7943373	2526.4414
1.794471	2530.3718
1.794605	2534.105
1.794739	2537.7046
1.7948728	2541.0093
1.7950069	2544.1565
1.7951409	2546.9575
1.7952749	2549.324
1.7954088	2551.3203
1.7955428	2552.6572
1.7956769	2553.9966
1.7958111	2555.3098
1.795945	2556.8047
1.7960793	2559.1987
1.7962134	2562.6589
1.7963476	2566.4185
1.7964818	2569.9263
1.796616	2569.8308
1.7967502	2569.7236
1.7968845	2574.6472
1.7970188	2580.2993
1.7971531	2585.655
1.7972875	2591.0239
1.7974217	2594.9451
1.797556	2598.8398
1.7976905	2602.2114
1.7978249	2605.6211
1.7979593	2608.3982
1.7980938	2611.4558
1.7982283	2614.2329
1.7983627	2616.6272
1.7984973	2618.7339
1.7986318	2620.1443
1.7987664	2620.5691
1.798901	2620.5522
1.7990355	2618.2063
1.7991703	2615.2256
1.7993048	2612.5972
1.7994395	2611.6682
1.7995743	2611.1304
1.799709	2611.4026
1.7998437	2612.4143
1.7999784	2613.7739
1.8001132	2616.876
1.8002479	2620.6216
1.8003827	2624.8384
1.8005176	2629.1792
1.8006524	2632.9939
1.8007873	2636.9363
1.8009224	2640.6082
1.8010572	2642.8206
1.8011922	2643.1531
1.8013271	2642.9287
1.8014621	2641.8335
1.8015971	2639.7866
1.8017323	2637.137
1.8018672	2634.1611
1.8020023	2631.0051
1.8021374	2628.5833
1.8022726	2626.3164
1.8024077	2625.605
1.8025429	2625.6958
1.8026781	2626.5432
1.8028132	2628.6997
1.8029486	2631.9822
1.8030838	2635.5293
1.803219	2639.0618
1.8033544	2641.4775
1.8034897	2642.6011
1.803625	2642.9607
1.8037604	2642.5513
1.8038958	2641.0886
1.8040311	2637.9143
1.8041667	2633.5203
1.8043021	2628.1282
1.8044375	2622.3149
1.8045731	2618.2119
1.8047086	2614.176
1.8048441	2611.5396
1.8049797	2610.6428
1.8051152	2612.6074
1.8052509	2616.6548
1.8053864	2622.856
1.8055222	2628.645
1.8056577	2635.7412
1.8057935	2640.252
1.8059292	2642.3477
1.8060651	2643.0737
1.8062007	2640.2439
1.8063365	2641.7974
1.8064723	2643.3813
1.8066082	2644.4226
1.806744	2645.4155
1.8068799	2646.3191
1.8070159	2647.3713
1.8071517	2648.7825
1.8072877	2652.0522
1.8074236	2654.2844
1.8075596	2653.6995
1.8076956	2651.4075
1.8078315	2648.499
1.8079677	2642.6536
1.8081037	2640.6208
1.8082398	2639.4995
1.808376	2639.0134
1.808512	2638.1384
1.8086482	2636.8372
1.8087845	2636.1953
1.8089206	2636.719
1.8090568	2638.238
1.8091931	2643.1775
1.8093294	2647.1199
1.8094655	2648.8069
1.8096019	2649.9573

Note: bartels lab/3642 MoS2 on 1012 WG/raman1_dominic/R2_C1/3642 R2C1 waveguide 2934x 4380y PL 600 t2 d1 100x.txt
1.7892661	2019.8546
1.7893994	2034.4757
1.7895323	2046.1344
1.7896655	2055.2451
1.7897985	2061.7502
1.7899318	2066.8311
1.7900648	2071.0032
1.790198	2074.8252
1.7903312	2078.0767
1.7904644	2080.8167
1.7905977	2083.4634
1.790731	2084.1069
1.7908642	2083.9668
1.7909976	2083.7747
1.7911309	2083.6379
1.7912642	2084.3113
1.7913977	2084.0422
1.791531	2083.9709
1.7916645	2084.3245
1.7917979	2085.073
1.7919314	2087.0422
1.7920648	2090.3142
1.7921984	2093.8315
1.7923318	2097.7214
1.7924654	2102.053
1.792599	2106.73
1.7927326	2111.3208
1.7928661	2116.3406
1.7929999	2121.385
1.7931334	2126.4648
1.7932671	2131.2246
1.7934008	2135.9448
1.7935345	2139.8391
1.7936683	2143.1177
1.793802	2145.0525
1.7939358	2142.2471
1.7940696	2144.616
1.7942034	2146.8616
1.7943373	2148.9927
1.794471	2160.3621
1.794605	2184.5093
1.794739	2188.1238
1.7948728	2182.5308
1.7950069	2172.9524
1.7951409	2149.2244
1.7952749	2145.7461
1.7954088	2150.5964
1.7955428	2156.3821
1.7956769	2161.8352
1.7958111	2166.5305
1.795945	2170.8774
1.7960793	2170.303
1.7962134	2172.7229
1.7963476	2174.7676
1.7964818	2180.9534
1.796616	2184.0718
1.7967502	2187.3716
1.7968845	2190.2161
1.7970188	2193.3342
1.7971531	2196.1382
1.7972875	2197.6592
1.7974217	2198.7844
1.797556	2199.7935
1.7976905	2200.7585
1.7978249	2203.2397
1.7979593	2206.4866
1.7980938	2210.3521
1.7982283	2212.8479
1.7983627	2213.6379
1.7984973	2215.0132
1.7986318	2216.6873
1.7987664	2218.5879
1.798901	2220.21
1.7990355	2221.6548
1.7991703	2222.7739
1.7993048	2223.4863
1.7994395	2223.9148
1.7995743	2223.9485
1.799709	2223.4226
1.7998437	2222.5366
1.7999784	2221.2612
1.8001132	2222.3005
1.8002479	2224.7102
1.8003827	2227.1948
1.8005176	2229.6602
1.8006524	2231.9128
1.8007873	2234.0552
1.8009224	2236.2124
1.8010572	2238.4924
1.8011922	2240.7576
1.8013271	2242.729
1.8014621	2244.4702
1.8015971	2246.3943
1.8017323	2248.2563
1.8018672	2250.051
1.8020023	2253.0042
1.8021374	2255.7532
1.8022726	2258.5825
1.8024077	2260.6914
1.8025429	2262.1882
1.8026781	2262.5884
1.8028132	2262.075
1.8029486	2261.281
1.8030838	2259.6138
1.803219	2257.2883
1.8033544	2254.4565
1.8034897	2251.4302
1.803625	2248.364
1.8037604	2245.9458
1.8038958	2244.228
1.8040311	2241.519
1.8041667	2239.3799
1.8043021	2240.3296
1.8044375	2242.3621
1.8045731	2246.2473
1.8047086	2250.2883
1.8048441	2253.5923
1.8049797	2256.3262
1.8051152	2258.9343
1.8052509	2261.1545
1.8053864	2262.6711
1.8055222	2264.1118
1.8056577	2265.4673
1.8057935	2266.2837
1.8059292	2266.7937
1.8060651	2265.1975
1.8062007	2261.6797
1.8063365	2258.4209
1.8064723	2255.897
1.8066082	2253.6255
1.806744	2251.7412
1.8068799	2250.6143
1.8070159	2249.8938
1.8071517	2249.6487
1.8072877	2250.28
1.8074236	2251.4111
1.8075596	2253.0378
1.8076956	2254.8335
1.8078315	2256.6118
1.8079677	2257.4971
1.8081037	2258.3391
1.8082398	2259.0911
1.808376	2259.2197
1.808512	2258.7368
1.8086482	2258.0227
1.8087845	2257.0833
1.8089206	2256.488
1.8090568	2256.217
1.8091931	2256.7627
1.8093294	2254.4502
1.8094655	2252.2002
1.8096019	2251.0212

File: 3642 R2C1 waveguide 2928x 4380y Raman 1800 t2 d1 100x.txt
650.268	73.2269
648.343	76.4844
646.417	78.7395
644.491	79.4934
642.564	78.4885
640.637	76.6938
638.71	76.1058
636.782	77.965
634.852	80.041
632.9231	80.6605
630.992	78.7923
629.0625	77.2315
627.131	77.75827
625.198	79.4767
623.2655	81.08593
621.332	81.2289
619.3988	81.721
617.465	81.486
615.528	80.0435
613.594	79.20916
611.656	80.823
609.721	81.94313
607.783	80.8233
605.844	79.00602
603.9054	78.7834
601.966	79.5192
600.026	80.3392
598.0863	80.9204
596.146	81.0166
594.205	80.54
592.261	78.8397
590.32	77.20681
588.375	78.035
586.431	78.9262
584.486	79.3437
582.54	78.38134
580.594	76.15847
578.648	74.0027
576.701	76.4842
574.754	79.4773
572.805	79.4039
570.857	78.3714
568.906	79.0026
566.958	81.4351
565.006	82.7364
563.055	81.5444
561.103	77.2069
559.15	79.24427
557.197	75.3177
555.244	83.5663
553.288	85.22818
551.334	79.354
549.377	80.652
547.422	82.5725
545.465	82.88195
543.507	84.0572
541.549	86.47538
539.59	90.4543
537.631	95.0998
535.671	98.5656
533.711	101.916
531.751	111.094
529.788	123.5368
527.8269	147.122
525.863	202.532
523.899	360.494
521.935	1046.23
519.9696	2082
518.004	779.507
516.038	314.447
514.0722	187.874
512.106	134.3887
510.138	118.484
508.169	108.1971
506.201	97.48159
504.231	90.0099
502.2598	86.1847
500.289	83.9448
498.317	82.0392
496.345	80.8859
494.372	80.66777
492.399	81.4274
490.426	81.4267
488.45	80.9247
486.476	80.8323
484.499	81.735
482.524	82.4867
480.547	79.191
478.569	73.4284
476.59	74.764
474.611	77.7458
472.6322	81.4097
470.653	80.7304
468.672	81.9468
466.69	82.7275
464.709	83.4069
462.7254	84.2855
460.744	87.0088
458.759	90.1982
456.775	91.4825
454.7894	91.0518
452.8038	90.2874
450.818	90.57132
448.831	90.5974
446.842	90.4242
444.8551	89.8161
442.867	89.7409
440.877	89.8225
438.886	89.1161
436.897	86.7079
434.906	85.1115
432.914	85.5237
430.922	86.31263
428.929	83.5601
426.935	80.7761
424.94	80.3902
422.946	82.5266
420.949	86.6932
418.954	90.781
416.957	93.8893
414.961	99.2029
412.962	104.068
410.964	130.596
408.964	197.928
406.965	299.744
404.9646	241.438
402.962	144.807
400.961	108.734
398.958	97.8508
396.956	86.4703
394.951	83.1596
392.949	82.5559
390.944	81.2467
388.938	86.9815
386.932	106.267
384.925	132.04
382.918	146.995
380.909	133.437
378.901	111.875
376.893	97.026
374.882	92.1974
372.871	89.1188
370.861	85.3977
368.849	81.1572
366.837	81.0481
364.824	80.6422
362.81	80.7769
360.796	81.1038
358.782	82.2794
356.765	82.8339
354.75	77.4349
352.734	76.9869
350.716	77.4349
348.698	79.7125
346.681	77.402
344.661	78.2812
342.641	82.1896
340.621	85.774
338.6	85.3265
336.577	80.5228
334.555	78.079
332.5332	78.8119
330.509	80.6817
328.486	80.5657
326.46	79.9033
324.434	80.3072
322.41	82.1208
320.383	84.1819
318.356	85.1799
316.328	84.8968
314.3	84.1848
312.269	83.6964
310.24	85.1062
308.2103	86.4094
306.178	87.48938
304.146	88.3218
302.115	88.5566
300.081	87.5043
298.048	83.04792
296.013	79.0102
293.979	77.39135
291.943	80.5092
289.908	83.0403
287.872	84.2562
285.833	84.3008
283.796	82.41
281.7565	79.1143
279.719	76.0421
277.678	74.1847
275.637	73.4995
273.596	73.5766
271.554	75.1577
269.512	75.8783
267.469	75.0564
265.426	74.1318
263.381	73.005
261.337	73.09211
259.292	72.8867
257.245	72.4653
255.198	71.6993
253.1517	70.4146
251.103	68.9486
249.054	68.6389
247.0052	71.1663
244.955	73.1254
242.905	72.5758
240.853	71.6106
238.801	72.1651
236.748	73.4461
234.696	74.7996
232.641	75.7306
230.588	75.9746
228.533	74.725
226.477	71.9573
224.42	69.9794
222.364	69.6655
220.306	69.8124
218.2486	69.3927
216.188	68.0938
214.13	66.2333
212.07	66.8386
210.0088	65.5222
207.947	65.9836
205.886	67.9049
203.8231	66.95871
201.7596	66.1991
199.696	64.1318
197.631	64.1283
195.5663	64.0585
193.501	63.3566
191.433	62.94976
189.367	63.50663
187.3	64.1617
185.231	64.6802
183.161	64.5824
181.093	63.9403
179.022	63.2175
176.951	64.4232
174.879	68.0928
172.807	65.1019
170.735	63.2057
168.662	65.1768
166.586	64.5122
164.512	64.1636
162.4359	64.06134
160.361	64.3174
158.284	64.1857
156.206	63.9189
154.13	65.0595
152.051	66.5797
149.971	66.6668
147.892	65.4341
145.812	63.7901
143.729	62.4916
141.648	61.4271
139.566	61.1353
138.002	64.4275

File: 3642 R2C1 waveguide 2934x 4380y Raman 1800 t2 d1 100x.txt
650.268	79.40416
648.343	76.1921
646.417	77.7469
644.491	80.3278
642.564	82.061
640.637	82.2017
638.71	81.0932
636.782	80.4848
634.852	81.7091
632.9231	83.5692
630.992	83.9136
629.0625	81.81356
627.131	83.1688
625.198	86.9785
623.2655	87.7809
621.332	86.6065
619.3988	84.56871
617.465	82.7072
615.528	81.3282
613.594	80.7439
611.656	81.5021
609.721	82.4221
607.783	83.3495
605.844	83.0129
603.9054	82.5165
601.966	82.0648
600.026	82.9985
598.0863	83.2474
596.146	80.993
594.205	79.6011
592.261	80.26593
590.32	78.8366
588.375	77.7847
586.431	76.9162
584.486	76.3517
582.54	77.151
580.594	79.7367
578.648	81.1431
576.701	81.6777
574.754	82.5697
572.805	83.7802
570.857	84.3657
568.906	83.4619
566.958	81.7076
565.006	80.02713
563.055	79.6799
561.103	80.7601
559.15	82.3406
557.197	83.5856
555.244	84.67337
553.288	86.337
551.334	87.8964
549.377	88.9516
547.422	88.7553
545.465	88.6504
543.507	88.4641
541.549	89.118
539.59	91.30378
537.631	95.66687
535.671	102.158
533.711	111.052
531.751	122.105
529.788	132.274
527.8269	147.039
525.863	209.089
523.899	388.117
521.935	1033.86
519.9696	2191
518.004	889
516.038	339.286
514.0722	197.779
512.106	147.456
510.138	127.372
508.169	112.499
506.201	102.246
504.231	95.1725
502.2598	90.4843
500.289	89.5761
498.317	89.2936
496.345	88.2861
494.372	87.1424
492.399	85.8567
490.426	84.3011
488.45	82.5917
486.476	81.6866
484.499	82.8018
482.524	82.0332
480.547	80.8679
478.569	80.1937
476.59	80.4378
474.611	81.0383
472.6322	82.043
470.653	83.0271
468.672	83.5667
466.69	83.4195
464.709	82.1006
462.7254	81.0607
460.744	82.3939
458.759	85.5948
456.775	88.734
454.7894	89.4721
452.8038	87.3288
450.818	85.1549
448.831	86.2905
446.842	89.1042
444.8551	87.2371
442.867	84.3338
440.877	84.9637
438.886	87.2736
436.897	85.9492
434.906	83.9793
432.914	85.1823
430.922	85.9403
428.929	86.64061
426.935	87.2087
424.94	87.7726
422.946	88.0804
420.949	88.1028
418.954	87.9587
416.957	87.74704
414.961	90.9528
412.962	102.398
410.964	127.627
408.964	166.5587
406.965	195.204
404.9646	157.319
402.962	122.492
400.961	103.669
398.958	93.4565
396.956	89.0524
394.951	86.9523
392.949	85.3483
390.944	85.8394
388.938	90.0396
386.932	100.46
384.925	115.04
382.918	123.34
380.909	115.192
378.901	101.075
376.893	92.943
374.882	90.63443
372.871	90.3508
370.861	86.7392
368.849	83.8142
366.837	82.5808
364.824	83.3179
362.81	81.8614
360.796	79.5622
358.782	78.6893
356.765	79.1894
354.75	81.1177
352.734	83.7498
350.716	85.3883
348.698	84.5566
346.681	81.5999
344.661	84.4737
342.641	89.35482
340.621	90.7548
338.6	87.3477
336.577	83.1082
334.555	79.6316
332.5332	80.6415
330.509	82.8277
328.486	85.9452
326.46	87.1736
324.434	87.41938
322.41	84.416
320.383	86.465
318.356	89.9894
316.328	87.3037
314.3	85.6948
312.269	84.8927
310.24	86.0246
308.2103	90.3065
306.178	94.0568
304.146	95.0086
302.115	92.9608
300.081	91.4782
298.048	89.6753
296.013	87.7548
293.979	86.5275
291.943	86.3822
289.908	87.2703
287.872	85.7731
285.833	83.0386
283.796	80.9474
281.7565	80.894
279.719	82.2582
277.678	84.1798
275.637	84.97718
273.596	82.8715
271.554	79.5747
269.512	77.3081
267.469	77.3099
265.426	78.135
263.381	78.9915
261.337	78.3553
259.292	76.78772
257.245	75.4434
255.198	76.15155
253.1517	77.4725
251.103	77.1333
249.054	75.8039
247.0052	75.3587
244.955	75.4375
242.905	75.3192
240.853	75.1437
238.801	74.7167
236.748	74.5469
234.696	74.8903
232.641	76.9485
230.588	77.03389
228.533	76.2058
226.477	73.9362
224.42	72.1875
222.364	71.3431
220.306	71.4638
218.2486	72.4158
216.188	72.1228
214.13	70.7163
212.07	70.28656
210.0088	70.6783
207.947	70.4277
205.886	68.0327
203.8231	66.1248
201.7596	67.2843
199.696	70.18084
197.631	70.9409
195.5663	70.3266
193.501	68.6513
191.433	67.9364
189.367	68.2497
187.3	68.4498
185.231	68.0695
183.161	67.2448
181.093	67.12616
179.022	67.3235
176.951	67.3953
174.879	67.0599
172.807	65.5578
170.735	64.2338
168.662	64.599
166.586	66.5571
164.512	67.12233
162.4359	66.2315
160.361	65.8179
158.284	66.00946
156.206	66.3442
154.13	66.4943
152.051	66.51886
149.971	66.519
147.892	66.5034
145.812	66.7618
143.729	67.11409
141.648	66.862
139.566	64.6328
138.002	58.617

File: 3642 R2C1 waveguide 2940x 4380y Raman 1800 t2 d1 100x.txt
650.268	97.7088
648.343	101.828
646.417	103.041
644.491	101.924
642.564	103.096
640.637	105.819
638.71	106.371
636.782	102.329
634.852	97.8657
632.9231	100.064
630.992	102.852
629.0625	103.963
627.131	103.823
625.198	103.311
623.2655	103.974
621.332	105.129
619.3988	105.6231
617.465	105.137
615.528	103.094
613.594	101.084
611.656	100.878
609.721	102.346
607.783	103.494
605.844	99.2271
603.9054	99.3492
601.966	106.297
600.026	106.502
598.0863	100.408
596.146	95.7891
594.205	100.0108
592.261	101.67
590.32	100.575
588.375	102.131
586.431	96.4292
584.486	95.4726
582.54	97.6136
580.594	97.799
578.648	95.2212
576.701	94.6109
574.754	96.8238
572.805	101.369
570.857	102.4319
568.906	98.9371
566.958	100.863
565.006	97.6538
563.055	99.1569
561.103	100.526
559.15	100.538
557.197	99.1232
555.244	97.9443
553.288	98.2472
551.334	99.92334
549.377	102.078
547.422	104.49
545.465	106.6796
543.507	108.873
541.549	111.0746
539.59	113.246
537.631	115.353
535.671	117.4434
533.711	122.497
531.751	134.835
529.788	148.262
527.8269	183.516
525.863	260.401
523.899	420.58
521.935	1167.79
519.9696	2400
518.004	958.619
516.038	370.101
514.0722	237.68
512.106	169.4032
510.138	144.882
508.169	129.479
506.201	121.842
504.231	118.791
502.2598	116.434
500.289	112.736
498.317	108.575
496.345	105.426
494.372	103.0048
492.399	100.9284
490.426	99.833
488.45	100.495
486.476	102.504
484.499	101.109
482.524	99.1542
480.547	99.99707
478.569	102.005
476.59	98.9052
474.611	94.4956
472.6322	95.7103
470.653	101.32
468.672	102.59
466.69	98.9121
464.709	96.0644
462.7254	96.6756
460.744	99.81871
458.759	102.7808
456.775	105.048
454.7894	105.806
452.8038	105.016
450.818	104.949
448.831	106.521
446.842	107.174
444.8551	104.5205
442.867	102.976
440.877	105.161
438.886	106.836
436.897	106.061
434.906	103.638
432.914	101.137
430.922	102.387
428.929	104.0807
426.935	100.827
424.94	96.9757
422.946	98.3578
420.949	99.4412
418.954	100.66
416.957	102.661
414.961	105.878
412.962	110.236
410.964	115.746
408.964	144.555
406.965	177.121
404.9646	171.391
402.962	145.781
400.961	120.484
398.958	105.505
396.956	98.9346
394.951	98.5129
392.949	98.0551
390.944	98.7359
388.938	103.381
386.932	111.826
384.925	119.755
382.918	121.272
380.909	117.027
378.901	110.023
376.893	105.068
374.882	99.6813
372.871	99.159
370.861	98.8959
368.849	97.599
366.837	95.4956
364.824	94.8854
362.81	97.1359
360.796	97.27845
358.782	95.1708
356.765	92.3784
354.75	91.5004
352.734	92.4217
350.716	91.3327
348.698	89.9808
346.681	91.77623
344.661	95.4569
342.641	100.283
340.621	102.2411
338.6	102.249
336.577	99.8759
334.555	96.53
332.5332	93.986
330.509	96.3459
328.486	99.3402
326.46	97.52076
324.434	96.2293
322.41	96.1807
320.383	97.1242
318.356	97.4587
316.328	97.3924
314.3	98.4224
312.269	98.4406
310.24	98.07032
308.2103	98.9305
306.178	101.722
304.146	105.464
302.115	109.1216
300.081	108.064
298.048	104.204
296.013	99.887
293.979	99.4389
291.943	100.702
289.908	98.9305
287.872	95.7415
285.833	94.1399
283.796	93.595
281.7565	93.4506
279.719	93.53183
277.678	93.5916
275.637	93.8547
273.596	94.6298
271.554	95.6502
269.512	94.6687
267.469	90.31118
265.426	86.57563
263.381	86.8923
261.337	89.3433
259.292	89.4083
257.245	88.826
255.198	89.0992
253.1517	89.6395
251.103	89.3459
249.054	87.1518
247.0052	85.9521
244.955	86.7971
242.905	87.877
240.853	87.9887
238.801	87.188
236.748	86.5259
234.696	86.868
232.641	88.1051
230.588	89.2425
228.533	89.3547
226.477	89.5787
224.42	86.6951
222.364	82.0007
220.306	81.0148
218.2486	83.70813
216.188	83.2768
214.13	80.6895
212.07	78.32943
210.0088	77.4267
207.947	78.0535
205.886	79.33374
203.8231	77.2148
201.7596	76.6954
199.696	78.212
197.631	79.191
195.5663	77.81768
193.501	76.4624
191.433	75.9321
189.367	76.9601
187.3	77.3709
185.231	77.0874
183.161	76.6744
181.093	76.2687
179.022	76.4437
176.951	76.7487
174.879	76.947
172.807	75.6447
170.735	74.261
168.662	73.54686
166.586	74.0982
164.512	74.6013
162.4359	74.933
160.361	75.1349
158.284	75.0295
156.206	75.1179
154.13	75.2211
152.051	75.2699
149.971	74.8125
147.892	74.3087
145.812	74.7478
143.729	76.178
141.648	77.7284
139.566	78.3612
138.002	74.5572

File: 3642 R2C1 waveguide 2983x 4342y Raman 1800t2 d1 100x.txt
650.268	67.6141
648.343	74.8355
646.417	75.91758
644.491	76.23497
642.564	76.3659
640.637	76.4377
638.71	76.3915
636.782	76.2814
634.852	76.1891
632.9231	76.1326
630.992	76.3401
629.0625	76.6336
627.131	76.9926
625.198	77.23307
623.2655	76.8711
621.332	75.7496
619.3988	74.8422
617.465	75.5652
615.528	78.3608
613.594	78.9538
611.656	75.9018
609.721	72.50573
607.783	73.9988
605.844	76.2103
603.9054	78.1622
601.966	79.6171
600.026	80.3488
598.0863	79.0727
596.146	75.2462
594.205	72.7942
592.261	73.1522
590.32	74.8828
588.375	75.8301
586.431	75.2969
584.486	74.2355
582.54	72.2218
580.594	70.0241
578.648	69.07869
576.701	70.41
574.754	72.3417
572.805	73.3425
570.857	73.835
568.906	75.4554
566.958	76.2934
565.006	75.644
563.055	75.4628
561.103	77.6937
559.15	80.3394
557.197	77.4988
555.244	73.2616
553.288	72.6388
551.334	76.1414
549.377	79.6036
547.422	80.6958
545.465	81.7709
543.507	83.8032
541.549	86.0417
539.59	88.47065
537.631	91.0578
535.671	94.2643
533.711	99.7709
531.751	112.508
529.788	131.711
527.8269	161.428
525.863	212.6427
523.899	428.917
521.935	1254
519.9696	2329
518.004	910.6
516.038	336.454
514.0722	196.174
512.106	149.263
510.138	125.256
508.169	107.445
506.201	96.3906
504.231	90.1591
502.2598	87.7693
500.289	87.7217
498.317	86.5775
496.345	82.8992
494.372	79.2157
492.399	76.9709
490.426	75.5578
488.45	74.2101
486.476	72.721
484.499	71.9807
482.524	73.4596
480.547	75.3771
478.569	75.7583
476.59	76.1612
474.611	76.9613
472.6322	78.2275
470.653	79.6212
468.672	81.0845
466.69	83.0185
464.709	85.0363
462.7254	85.2613
460.744	83.786
458.759	82.7156
456.775	83.2234
454.7894	85.2569
452.8038	88.107
450.818	88.7694
448.831	86.1214
446.842	85.0748
444.8551	84.4447
442.867	83.9546
440.877	83.4306
438.886	83.042
436.897	82.2807
434.906	81.507
432.914	80.8022
430.922	81.7253
428.929	83.121
426.935	84.4503
424.94	85.0387
422.946	85.2923
420.949	85.2042
418.954	84.8337
416.957	84.4058
414.961	85.1445
412.962	91.6587
410.964	108.239
408.964	137.881
406.965	177.103
404.9646	198.739
402.962	142.734
400.961	104.702
398.958	88.1628
396.956	82.8445
394.951	81.4174
392.949	83.801
390.944	82.0848
388.938	82.4669
386.932	100.715
384.925	119.473
382.918	120.211
380.909	106.159
378.901	92.3275
376.893	86.974
374.882	82.3225
372.871	80.3329
370.861	79.216
368.849	78.62291
366.837	78.1602
364.824	77.5359
362.81	77.3417
360.796	77.6073
358.782	77.9391
356.765	78.0322
354.75	77.057
352.734	75.6992
350.716	74.5245
348.698	74.2747
346.681	75.0726
344.661	76.9231
342.641	79.8937
340.621	82.8648
338.6	82.4339
336.577	78.944
334.555	76.4703
332.5332	76.3635
330.509	77.70536
328.486	80.07531
326.46	80.3592
324.434	80.3418
322.41	79.5483
320.383	79.0791
318.356	79.0719
316.328	79.6856
314.3	81.1656
312.269	82.9619
310.24	84.6852
308.2103	84.7101
306.178	84.965
304.146	87.8849
302.115	89.145
300.081	86.9336
298.048	84.69812
296.013	83.6382
293.979	82.5596
291.943	81.4561
289.908	79.9671
287.872	77.3698
285.833	76.0673
283.796	77.8725
281.7565	78.6991
279.719	78.7437
277.678	75.7166
275.637	75.5872
273.596	75.0784
271.554	75.0358
269.512	72.9089
267.469	72.9475
265.426	72.9305
263.381	71.6298
261.337	70.5222
259.292	69.8972
257.245	70.4143
255.198	71.0821
253.1517	71.4701
251.103	70.4729
249.054	68.5327
247.0052	66.21653
244.955	68.559
242.905	73.8667
240.853	74.3091
238.801	72.3228
236.748	69.8007
234.696	69.852
232.641	71.88781
230.588	73.0574
228.533	71.8559
226.477	69.1978
224.42	66.5925
222.364	65.9291
220.306	66.1911
218.2486	66.3838
216.188	66.3655
214.13	66.1922
212.07	65.9751
210.0088	65.7778
207.947	65.5102
205.886	64.9604
203.8231	64.302
201.7596	64.0232
199.696	64.2931
197.631	64.4539
195.5663	63.5836
193.501	62.0097
191.433	60.7181
189.367	60.4125
187.3	60.5174
185.231	60.8885
183.161	62.1184
181.093	65.7112
179.022	64.5465
176.951	63.5785
174.879	63.5805
172.807	64.4488
170.735	64.9773
168.662	63.2043
166.586	61.47834
164.512	61.5994
162.4359	63.1507
160.361	64.2417
158.284	62.8335
156.206	60.89476
154.13	60.4518
152.051	60.6329
149.971	60.6229
147.892	59.5889
145.812	58.8998
143.729	59.0713
141.648	60.5111
139.566	62.743
138.002	64.81