Folder: physics-132/bartels lab/3642 MoS2 on 1012 WG/raman1_dominic/R2_C1 (part 2)

File: 3642 R2C1 waveguide 2983x 4347y Raman 1800 t2 d1 100x.txt
650.268	70.37619
648.343	72.743
646.417	78.293
644.491	74.0398
642.564	70.34996
640.637	71.4537
638.71	73.6874
636.782	76.1226
634.852	75.5662
632.9231	73.3419
630.992	74.8888
629.0625	76.2416
627.131	77.0535
625.198	75.0404
623.2655	74.0934
621.332	75.0477
619.3988	74.9561
617.465	77.0846
615.528	77.88562
613.594	76.1946
611.656	76.6199
609.721	77.5365
607.783	78.4674
605.844	77.1498
603.9054	74.9352
601.966	74.3738
600.026	73.8303
598.0863	72.8228
596.146	73.1021
594.205	75.5508
592.261	76.6554
590.32	76.2003
588.375	74.2947
586.431	74.7234
584.486	74.3108
582.54	72.2773
580.594	71.3994
578.648	72.0294
576.701	73.674
574.754	73.042
572.805	73.1596
570.857	73.1011
568.906	73.9611
566.958	75.0729
565.006	74.0535
563.055	74.8023
561.103	76.2411
559.15	76.9732
557.197	76.4567
555.244	76.963
553.288	77.4122
551.334	76.1836
549.377	76.2749
547.422	78.5621
545.465	83.6721
543.507	81.8267
541.549	81.21759
539.59	86.48996
537.631	90.0138
535.671	93.927
533.711	98.9952
531.751	109.029
529.788	115.812
527.8269	155.692
525.863	196.589
523.899	365.673
521.935	1013.62
519.9696	2150.43
518.004	886.7486
516.038	337.905
514.0722	194.225
512.106	140.812
510.138	118.508
508.169	105.457
506.201	98.3496
504.231	92.0914
502.2598	86.6105
500.289	83.8732
498.317	83.2842
496.345	83.6068
494.372	82.6255
492.399	79.88739
490.426	77.0546
488.45	75.2559
486.476	74.18206
484.499	73.8797
482.524	75.6516
480.547	80.5506
478.569	79.51429
476.59	75.5319
474.611	73.4457
472.6322	77.3118
470.653	78.0824
468.672	76.5146
466.69	76.0766
464.709	79.7732
462.7254	82.2942
460.744	83.1261
458.759	83.2544
456.775	85.6029
454.7894	89.8602
452.8038	89.4808
450.818	84.6415
448.831	81.8726
446.842	86.2885
444.8551	87.8896
442.867	85.8551
440.877	86.409
438.886	89.8086
436.897	87.1424
434.906	83.69249
432.914	82.3716
430.922	81.8008
428.929	84.4151
426.935	84.2721
424.94	83.535
422.946	83.4215
420.949	83.8368
418.954	86.1001
416.957	87.4182
414.961	91.049
412.962	98.6978
410.964	118.0996
408.964	165.549
406.965	220.817
404.9646	199.986
402.962	142.373
400.961	105.661
398.958	88.2475
396.956	81.8234
394.951	80.8382
392.949	80.2531
390.944	82.0905
388.938	88.6993
386.932	100.5704
384.925	118.096
382.918	134.268
380.909	117.549
378.901	108.767
376.893	93.87767
374.882	84.7205
372.871	82.6201
370.861	83.6108
368.849	83.2421
366.837	80.8972
364.824	77.2981
362.81	75.8916
360.796	75.8778
358.782	75.5041
356.765	74.8199
354.75	75.7972
352.734	78.3866
350.716	79.6301
348.698	77.8541
346.681	75.2624
344.661	77.5423
342.641	82.1361
340.621	83.8964
338.6	83.0185
336.577	80.0173
334.555	75.7889
332.5332	73.933
330.509	72.98082
328.486	76.0098
326.46	77.7364
324.434	78.0049
322.41	78.8708
320.383	79.4184
318.356	80.5891
316.328	80.7807
314.3	79.9017
312.269	80.8366
310.24	83.022
308.2103	84.6321
306.178	87.15332
304.146	90.1639
302.115	92.5358
300.081	91.3836
298.048	86.4302
296.013	80.9424
293.979	78.89064
291.943	79.2351
289.908	79.423
287.872	79.43
285.833	79.2656
283.796	78.03746
281.7565	78.5537
279.719	79.4005
277.678	79.7586
275.637	77.7316
273.596	74.1188
271.554	72.7949
269.512	74.00769
267.469	76.3491
265.426	73.9288
263.381	71.6821
261.337	73.0118
259.292	73.6368
257.245	73.78257
255.198	74.1424
253.1517	74.6145
251.103	75.7985
249.054	74.01519
247.0052	70.6893
244.955	70.511
242.905	70.3724
240.853	70.7329
238.801	69.2067
236.748	70.2998
234.696	71.00293
232.641	69.8949
230.588	70.5685
228.533	73.5247
226.477	73.0321
224.42	71.3824
222.364	68.7782
220.306	67.5029
218.2486	67.6942
216.188	67.3917
214.13	67.4701
212.07	68.07914
210.0088	68.1212
207.947	68.4465
205.886	67.3407
203.8231	64.8937
201.7596	62.1263
199.696	62.4631
197.631	66.2785
195.5663	67.9583
193.501	65.809
191.433	64.2969
189.367	63.1526
187.3	63.1432
185.231	63.3176
183.161	64.0153
181.093	64.6248
179.022	64.7496
176.951	64.66507
174.879	64.9442
172.807	65.2343
170.735	65.1559
168.662	64.2718
166.586	63.2644
164.512	63.053
162.4359	63.7943
160.361	62.7962
158.284	62.5667
156.206	61.9003
154.13	61.3058
152.051	61.5791
149.971	62.0281
147.892	60.4869
145.812	60.3383
143.729	61.0962
141.648	63.4569
139.566	65.1419
138.002	64.8056

File: 3642 R2C1 waveguide 2983x 4352y Raman 1800 t2 d1 100x.txt
650.268	81.1867
648.343	80.3685
646.417	81.525
644.491	84.371
642.564	87.0836
640.637	86.8902
638.71	84.2929
636.782	82.6214
634.852	83.0875
632.9231	83.2569
630.992	82.6233
629.0625	82.9549
627.131	83.2042
625.198	83.1588
623.2655	82.9838
621.332	80.2923
619.3988	80.058
617.465	80.9592
615.528	84.2912
613.594	83.8037
611.656	83.1578
609.721	82.3736
607.783	82.0368
605.844	82.8086
603.9054	84.67276
601.966	83.4257
600.026	80.786
598.0863	79.6118
596.146	80.9971
594.205	83.7378
592.261	81.7728
590.32	77.8535
588.375	76.2597
586.431	77.6644
584.486	80.957
582.54	82.5201
580.594	82.9825
578.648	80.4264
576.701	78.2549
574.754	78.5993
572.805	78.8864
570.857	79.235
568.906	77.9566
566.958	77.5548
565.006	79.397
563.055	80.3564
561.103	83.212
559.15	83.5351
557.197	82.4706
555.244	83.3443
553.288	83.004
551.334	82.1675
549.377	81.82637
547.422	82.3545
545.465	83.7729
543.507	85.8354
541.549	88.2975
539.59	91.3895
537.631	95.5225
535.671	99.8364
533.711	102.963
531.751	108.15
529.788	119.537
527.8269	143.978
525.863	204.787
523.899	343.026
521.935	1011.73
519.9696	1879.3
518.004	641.361
516.038	269.4397
514.0722	172.268
512.106	133.632
510.138	120.238
508.169	109.623
506.201	98.2616
504.231	90.2607
502.2598	86.61969
500.289	86.8444
498.317	85.90226
496.345	83.8104
494.372	83.4675
492.399	83.7392
490.426	80.9676
488.45	77.3232
486.476	75.6475
484.499	76.358
482.524	78.73983
480.547	80.7421
478.569	81.0576
476.59	80.6778
474.611	82.3558
472.6322	82.7496
470.653	79.9267
468.672	78.5716
466.69	78.8379
464.709	81.91378
462.7254	83.7775
460.744	84.12558
458.759	84.7006
456.775	87.018
454.7894	85.1988
452.8038	87.8172
450.818	84.94986
448.831	84.2702
446.842	86.0192
444.8551	87.7983
442.867	89.6104
440.877	88.2701
438.886	84.4465
436.897	80.0321
434.906	79.1276
432.914	84.2863
430.922	86.7001
428.929	86.05722
426.935	85.5208
424.94	85.1217
422.946	82.4787
420.949	81.1753
418.954	84.0985
416.957	86.5978
414.961	88.1253
412.962	91.76001
410.964	103.365
408.964	122.354
406.965	148.986
404.9646	163.584
402.962	120.756
400.961	95.7167
398.958	88.5842
396.956	83.345
394.951	83.8122
392.949	83.5249
390.944	83.1471
388.938	86.2071
386.932	99.0808
384.925	114.4801
382.918	102.3576
380.909	96.4382
378.901	89.8062
376.893	84.2518
374.882	80.4509
372.871	78.3712
370.861	79.0081
368.849	79.7921
366.837	79.6568
364.824	79.3908
362.81	78.9531
360.796	78.48922
358.782	78.0134
356.765	77.4794
354.75	76.509
352.734	75.71
350.716	76.8452
348.698	78.2594
346.681	78.6392
344.661	77.58
342.641	76.2926
340.621	75.4096
338.6	75.4697
336.577	75.9481
334.555	76.598
332.5332	76.9126
330.509	76.7424
328.486	77.6548
326.46	79.86219
324.434	80.0109
322.41	78.0243
320.383	76.5507
318.356	79.2602
316.328	81.0157
314.3	80.9299
312.269	79.1569
310.24	78.2382
308.2103	80.1622
306.178	82.626
304.146	86.6784
302.115	84.23
300.081	81.8505
298.048	81.693
296.013	84.0919
293.979	84.4502
291.943	81.1072
289.908	76.1274
287.872	74.1177
285.833	74.5915
283.796	75.4368
281.7565	74.36422
279.719	73.5379
277.678	73.9384
275.637	73.6749
273.596	73.8964
271.554	72.4114
269.512	72.4249
267.469	71.503
265.426	71.0351
263.381	70.7665
261.337	70.3013
259.292	68.7325
257.245	68.6802
255.198	70.5313
253.1517	71.8656
251.103	70.8337
249.054	69.5281
247.0052	69.85495
244.955	70.5995
242.905	71.0374
240.853	70.5651
238.801	70.4602
236.748	72.585
234.696	72.8599
232.641	69.0793
230.588	65.9731
228.533	65.6737
226.477	69.5316
224.42	71.5564
222.364	70.8
220.306	69.2928
218.2486	68.9664
216.188	68.0439
214.13	67.2355
212.07	67.4581
210.0088	67.3791
207.947	66.9325
205.886	66.27211
203.8231	65.9155
201.7596	65.49688
199.696	64.9473
197.631	64.37001
195.5663	64.1511
193.501	63.7856
191.433	63.3354
189.367	63.1476
187.3	63.8121
185.231	66.9706
183.161	63.4208
181.093	62.0409
179.022	61.7661
176.951	62.278
174.879	61.2059
172.807	59.6861
170.735	64.4047
168.662	65.0098
166.586	66.1132
164.512	65.9987
162.4359	65.5501
160.361	63.7913
158.284	63.5359
156.206	63.25758
154.13	61.7125
152.051	60.7854
149.971	62.6604
147.892	64.0191
145.812	63.4006
143.729	62.1997
141.648	62.0353
139.566	63.5429
138.002	65.7173