Folder: physics-132/bartels lab/3642 MoS2 on 1012 WG/Raman_5_21_2015_Dominic/C3_R2

File: 3642 8401x 3291y PL 600 T2 D1 100x.txt
1.7708	2739.03
1.77132	2750.55
1.771839	2805.28
1.77236	2848.01
1.77288	2880.375
1.77341	2913.29
1.77393	2934.73
1.77445	2960.593
1.77497	2990.511
1.7755	3023.86
1.77602	3052.76
1.77655	3081.66
1.77707	3109.87
1.777596	3135.76
1.77812	3159.88
1.77865	3202.94
1.77917	3238.48
1.7797	3261.12
1.780226	3277.78
1.780753	3306.52
1.78128	3356.05
1.78181	3398.4
1.78234	3429.468
1.78286	3446.605
1.78339	3468.54
1.78392	3495.48
1.78445	3527.72
1.78498	3567.1
1.78551	3614.01
1.78604	3651.67
1.78657	3689.06
1.7871	3720.96
1.78764	3747.501
1.78817	3789.51
1.788699	3836.7
1.78923	3897.18
1.78976	3966.03
1.7903	4024.66
1.79083	4066.31
1.79136	4106.59
1.791899	4164.32
1.79243	4220.32
1.79297	4267.62
1.7935	4309.56
1.79404	4376.01
1.79458	4442.74
1.79511	4506.06
1.79565	4578.28
1.79618	4648.88
1.79672	4718.48
1.79726	4768.67
1.7978	4807.65
1.79834	4875.54
1.79887	4958.856
1.79941	5044.84
1.79995	5088.61
1.80049	5158.36
1.80103	5231.51
1.80157	5266.88
1.80211	5313.79
1.80265	5374.96
1.8032	5439.09
1.803738	5495.58
1.80428	5552.08
1.80482	5609.07
1.80537	5616.44
1.80591	5651.71
1.80645	5710.21
1.807	5773.418
1.80754	5820.96
1.808085	5857.2
1.80863	5930.1
1.80918	6017.04
1.80972	6093.47
1.81027	6158.31
1.81081	6204.8
1.81136	6274.45
1.81191	6376.53
1.81245	6461.876
1.813	6550.59
1.81355	6634.53
1.8141	6715.37
1.81465	6809.24
1.815197	6922.95
1.81575	7038.375
1.8163	7164.69
1.81685	7295.001
1.8174	7408.58
1.81795	7509.835
1.8185	7623.18
1.81905	7738.61
1.8196	7831.57
1.82016	8006.86
1.82071	8139.99
1.82126	8222.09
1.82182	8278.498
1.822369	8367.25
1.82292	8487.41
1.82348	8597.13
1.82403	8683.39
1.82459	8756.14
1.82514	8827.04
1.8257	8918.21
1.82626	8969.873
1.82681	8990.33
1.82737	9060.08
1.82793	9170.76
1.82849	9251.31
1.82904	9309.374
1.8296	9371.332
1.830161	9469.78
1.83072	9515.38
1.83128	9583.13
1.83184	9682.79
1.8324	9794.68
1.83296	9916.96
1.83352	10030.112
1.83408	10134.178
1.83465	10241.402
1.83521	10358.01
1.83577	10482.121
1.83633	10602.567
1.8369	10711.327
1.83746	10818.36
1.83802	10906.238
1.83859	10988.692
1.83915	11100.262
1.83972	11213.53
1.84028	11285.152
1.84085	11352.398
1.841417	11436.688
1.84198	11524.198
1.84255	11595.479
1.84312	11644.2
1.84369	11666.663
1.844254	11694.664
1.84482	11728.743
1.84539	11750.989
1.84596	11768.391
1.84653	11808.286
1.8471	11796.801
1.84767	11760.76
1.84824	11702.715
1.84881	11666.387
1.84938	11664.156
1.84996	11691.334
1.85053	11693.375
1.8511	11664.029
1.85167	11612.54
1.85225	11572.743
1.85282	11549.661
1.8534	11533.618
1.85397	11507.396
1.85455	11452.117
1.85512	11413.373
1.8557	11370.648
1.85627	11307.873
1.85685	11237.894
1.85743	11181.327
1.858	11136.143
1.85858	11070.347
1.85916	10975.186
1.85974	10882.667
1.86032	10785.739
1.86089	10691.775
1.86147	10595.729
1.862054	10488.924
1.86263	10397.551
1.86322	10299.987
1.8638	10195.902
1.86438	10087.675
1.86496	10015.173
1.86554	9921.25
1.86612	9814.68
1.86671	9699.27
1.86729	9589.2
1.86787	9495.5
1.86846	9397.86
1.86904	9287.31
1.86963	9170.99
1.870213	9044.83
1.8708	8945.67
1.87138	8843.51
1.87197	8753.98
1.87256	8640.81
1.87315	8487.415
1.87373	8336.08
1.87432	8207.62
1.87491	8090.42
1.8755	7960.89
1.87609	7787.21
1.87668	7618.83
1.87727	7492.79
1.87786	7357.98
1.87845	7219.1
1.87904	7052.27
1.87963	6886.43
1.88022	6748.8
1.88082	6589.87
1.88141	6417.27
1.882	6254.39
1.8826	6122.89
1.88319	6007.23
1.88378	5890.25
1.88438	5749.03
1.88497	5594.52
1.88557	5445.12
1.88616	5302.5
1.88676	5186.43
1.88736	5094.68
1.887955	5002.64
1.88855	4909.85
1.88915	4813.02
1.88975	4702.54
1.89035	4581.45
1.89095	4479.07
1.89155	4390.92
1.89215	4311.43
1.89275	4215.78
1.89335	4130.08
1.89395	4056.43
1.89455	3989.54
1.895152	3914.99
1.89575	3832.53
1.89636	3743.51
1.89696	3656.6
1.89756	3578.78
1.89817	3493.75
1.89877	3415.52
1.899377	3337.11
1.89998	3273.09
1.90059	3197.24
1.90119	3128.67
1.9018	3070.45
1.90241	3022.24
1.90301	2964.03
1.903622	2889.49
1.90423	2811.45
1.90484	2748.76
1.90545	2691.41
1.90606	2627.9
1.90667	2558.72
1.90728	2503.72
1.90789	2460.01
1.9085	2419.66
1.90911	2361.55
1.90972	2289.73
1.91033	2225.57
1.910946	2190.67
1.911559	2149.37
1.91217	2106.62
1.91279	2049.25
1.9134	2000.69
1.91402	1958.29
1.91463	1921.64
1.91525	1897.92
1.91571	1877.26

File: 3642 8401x 3291y Raman 1800 T2 D1 100x.txt
650.268	67.81871
648.343	70.6725
646.417	69.7463
644.491	68.92395
642.564	68.815
640.637	70.4048
638.71	72.1916
636.782	73.3746
634.852	73.2928
632.9231	72.4584
630.992	71.4275
629.0625	70.6334
627.131	70.4573
625.198	70.563
623.2655	70.7741
621.332	70.8674
619.3988	69.799
617.465	68.9904
615.528	70.7192
613.594	72.2721
611.656	71.7348
609.721	70.1979
607.783	68.6287
605.844	68.1434
603.9054	68.809
601.966	70.0015
600.026	70.8005
598.0863	69.6347
596.146	68.3153
594.205	68.1408
592.261	69.728
590.32	71.2068
588.375	70.8257
586.431	68.7126
584.486	66.4849
582.54	66.6301
580.594	67.35495
578.648	68.1024
576.701	67.9328
574.754	67.3685
572.805	66.523
570.857	65.9482
568.906	66.4194
566.958	68.7743
565.006	70.7504
563.055	69.4003
561.103	67.1122
559.15	65.7331
557.197	66.08197
555.244	68.1857
553.288	71.3186
551.334	69.6922
549.377	70.4082
547.422	70.7865
545.465	70.0965
543.507	73.4247
541.549	76.2872
539.59	75.7535
537.631	77.74855
535.671	80.7752
533.711	87.1901
531.751	93.0688
529.788	103.948
527.8269	120.804
525.863	168.206
523.899	331.0643
521.935	978.164
519.9696	1283
518.004	420
516.038	193.649
514.0722	141.5206
512.106	112.389
510.138	95.4334
508.169	84.864
506.201	80.0888
504.231	77.0059
502.2598	75.1624
500.289	75.0366
498.317	74.6764
496.345	71.1507
494.372	70.1507
492.399	72.7156
490.426	70.99
488.45	69.4123
486.476	66.9732
484.499	65.399
482.524	65.0195
480.547	66.5848
478.569	68.0023
476.59	67.8099
474.611	67.7088
472.6322	68.0223
470.653	68.3884
468.672	67.9573
466.69	69.4638
464.709	70.6891
462.7254	73.0861
460.744	73.8764
458.759	74.5448
456.775	74.84066
454.7894	75.683
452.8038	74.6119
450.818	74.0944
448.831	73.8245
446.842	71.0375
444.8551	69.9559
442.867	69.5625
440.877	70.6763
438.886	70.213
436.897	69.4767
434.906	70.2788
432.914	71.0009
430.922	71.0932
428.929	70.5402
426.935	69.6531
424.94	68.06044
422.946	66.1407
420.949	66.4311
418.954	69.6581
416.957	71.9189
414.961	72.58667
412.962	72.32
410.964	74.8496
408.964	83.5278
406.965	98.09729
404.9646	119.278
402.962	114.5452
400.961	81.6761
398.958	72.6821
396.956	70.438
394.951	70.37886
392.949	69.6568
390.944	70.726
388.938	70.0666
386.932	73.3444
384.925	97.8348
382.918	95.8159
380.909	78.4876
378.901	69.2166
376.893	71.313
374.882	73.6699
372.871	70.1817
370.861	66.9546
368.849	66.9925
366.837	69.1948
364.824	70.2264
362.81	68.78244
360.796	66.6851
358.782	66.3621
356.765	66.5257
354.75	66.7317
352.734	66.7559
350.716	66.5153
348.698	66.2486
346.681	65.9831
344.661	65.7583
342.641	65.5525
340.621	65.3353
338.6	65.1091
336.577	64.89
334.555	64.7634
332.5332	65.3846
330.509	67.6199
328.486	69.6253
326.46	69.367
324.434	68.1595
322.41	66.3471
320.383	64.8168
318.356	63.7697
316.328	64.1809
314.3	65.9972
312.269	67.4402
310.24	68.4512
308.2103	69.8423
306.178	71.8358
304.146	72.6462
302.115	70.6944
300.081	68.7421
298.048	67.6523
296.013	67.8359
293.979	68.2297
291.943	68.0806
289.908	66.4046
287.872	64.61866
285.833	63.3906
283.796	64.1078
281.7565	65.0351
279.719	64.6505
277.678	62.3572
275.637	62.3141
273.596	64.6536
271.554	65.4884
269.512	65.1236
267.469	63.5439
265.426	61.4756
263.381	60.5878
261.337	60.5099
259.292	60.7308
257.245	60.6628
255.198	60.483
253.1517	60.4131
251.103	60.5385
249.054	60.9195
247.0052	61.6982
244.955	62.5269
242.905	61.6563
240.853	59.8766
238.801	59.76479
236.748	62.2254
234.696	62.7529
232.641	60.47229
230.588	58.8097
228.533	59.95034
226.477	65.2042
224.42	64.1683
222.364	58.479
220.306	59.7525
218.2486	60.2144
216.188	60.1493
214.13	58.9753
212.07	57.537
210.0088	56.464
207.947	56.8623
205.886	57.3004
203.8231	56.6273
201.7596	55.6462
199.696	55.1723
197.631	55.4422
195.5663	55.8578
193.501	56.2012
191.433	56.3976
189.367	56.3301
187.3	56.1377
185.231	55.8173
183.161	55.4558
181.093	55.2621
179.022	55.5568
176.951	55.9463
174.879	56.1176
172.807	55.14912
170.735	54.1639
168.662	53.88
166.586	54.2476
164.512	54.695
162.4359	55.12899
160.361	55.4609
158.284	55.3795
156.206	55.044
154.13	54.5123
152.051	53.98415
149.971	53.8459
147.892	54.227
145.812	55.7034
143.729	57.0544
141.648	56.4284
139.566	53.7295
138.002	53.7279

File: 3642 8401x 3303y PL 600 T2 D1 100x.txt
1.7708	2169.15
1.77132	2212.42
1.771839	2233.48
1.77236	2247.42
1.77288	2271.68
1.77341	2293.5
1.77393	2330.24
1.77445	2337.76
1.77497	2363.71
1.7755	2398.82
1.77602	2428.269
1.77655	2442.11
1.77707	2467.23
1.777596	2491.36
1.77812	2509.55
1.77865	2518.77
1.77917	2532.15
1.7797	2563.41
1.780226	2605.522
1.780753	2633.66
1.78128	2646.86
1.78181	2648.73
1.78234	2671.23
1.78286	2709.79
1.78339	2743.66
1.78392	2764.62
1.78445	2770.86
1.78498	2788.05
1.78551	2831.23
1.78604	2885.67
1.78657	2924.48
1.7871	2940.6
1.78764	2967.46
1.78817	3002.76
1.788699	3034.04
1.78923	3065.15
1.78976	3100.92
1.7903	3143.97
1.79083	3174.31
1.79136	3225.21
1.791899	3267.43
1.79243	3297.12
1.79297	3330.37
1.7935	3380.47
1.79404	3430.76
1.79458	3469.56
1.79511	3520.9
1.79565	3570.45
1.79618	3618.92
1.79672	3646.62
1.79726	3704.92
1.7978	3786.34
1.79834	3821.97
1.79887	3859.26
1.79941	3890.33
1.79995	3921
1.80049	3966.06
1.80103	4019.41
1.80157	4070.95
1.80211	4118.97
1.80265	4158.272
1.8032	4186.65
1.803738	4210.04
1.80428	4246.416
1.80482	4278.42
1.80537	4307.95
1.80591	4345.72
1.80645	4394.61
1.807	4423.14
1.80754	4447
1.808085	4495.8
1.80863	4547.54
1.80918	4569.49
1.80972	4621.03
1.81027	4673.33
1.81081	4714.064
1.81136	4745.98
1.81191	4791.81
1.81245	4858.38
1.813	4921.45
1.81355	4994.35
1.8141	5060.61
1.81465	5129.66
1.815197	5206.39
1.81575	5287.21
1.8163	5363.6
1.81685	5450.65
1.8174	5544.85
1.81795	5624.2
1.8185	5685.61
1.81905	5754.93
1.8196	5841.21
1.82016	5941.83
1.82071	5978.96
1.82126	6000.13
1.82182	6090.68
1.822369	6185.78
1.82292	6265.42
1.82348	6296.15
1.82403	6301.46
1.82459	6334.02
1.82514	6406.43
1.8257	6469.02
1.82626	6505.04
1.82681	6556.11
1.82737	6603.98
1.82793	6616.8
1.82849	6651.18
1.82904	6699.64
1.8296	6739.83
1.830161	6762.1
1.83072	6795.1
1.83128	6844.13
1.83184	6903.35
1.8324	6957.16
1.83296	7030.53
1.83352	7090.833
1.83408	7152.14
1.83465	7216.59
1.83521	7268.61
1.83577	7318.55
1.83633	7390.32
1.8369	7472.165
1.83746	7539.56
1.83802	7599.75
1.83859	7652.49
1.83915	7697.51
1.83972	7737.44
1.84028	7785.25
1.84085	7849.9
1.841417	7903.54
1.84198	7952.47
1.84255	7983.36
1.84312	7969.24
1.84369	7944.71
1.844254	7944.61
1.84482	7977.38
1.84539	8004.42
1.84596	7954.01
1.84653	7932.7
1.8471	7927.3
1.84767	7898.47
1.84824	7895.46
1.84881	7877.27
1.84938	7867.83
1.84996	7847.24
1.85053	7814.13
1.8511	7770.8
1.85167	7741.11
1.85225	7702.76
1.85282	7667.89
1.8534	7643.999
1.85397	7640.74
1.85455	7639.15
1.85512	7603.93
1.8557	7537.437
1.85627	7459.54
1.85685	7413.07
1.85743	7364.31
1.858	7319.22
1.85858	7268.71
1.85916	7211.47
1.85974	7153.25
1.86032	7085.17
1.86089	7003.09
1.86147	6916.88
1.862054	6843
1.86263	6791.93
1.86322	6742.02
1.8638	6677.81
1.86438	6592.3
1.86496	6503.14
1.86554	6421.11
1.86612	6369.8
1.86671	6327.4
1.86729	6280.167
1.86787	6219.36
1.86846	6141.82
1.86904	6059.39
1.86963	5976.54
1.870213	5896.8
1.8708	5831.16
1.87138	5759.27
1.87197	5662.32
1.87256	5579.83
1.87315	5518.03
1.87373	5448.11
1.87432	5355.2
1.87491	5251.57
1.8755	5156.22
1.87609	5060.83
1.87668	4973.93
1.87727	4875.57
1.87786	4781.04
1.87845	4690.57
1.87904	4600.55
1.87963	4490.02
1.88022	4380.07
1.88082	4286.42
1.88141	4209.48
1.882	4133.44
1.8826	4051.16
1.88319	3953.5
1.88378	3827.4
1.88438	3758.21
1.88497	3684.94
1.88557	3614.31
1.88616	3541.5
1.88676	3462.67
1.88736	3386.48
1.887955	3320.99
1.88855	3254.26
1.88915	3196.32
1.88975	3140.77
1.89035	3092.52
1.89095	3025.61
1.89155	2945.45
1.89215	2919.36
1.89275	2885.83
1.89335	2831.46
1.89395	2774.585
1.89455	2706.26
1.895152	2658.81
1.89575	2613.61
1.89636	2552.554
1.89696	2509.11
1.89756	2457.58
1.89817	2401.85
1.89877	2349.84
1.899377	2316.615
1.89998	2284.34
1.90059	2232.42
1.90119	2175.84
1.9018	2129.47
1.90241	2091.51
1.90301	2051.96
1.903622	2014.23
1.90423	1980.59
1.90484	1944.74
1.90545	1903.29
1.90606	1868.85
1.90667	1842.44
1.90728	1807.29
1.90789	1779.709
1.9085	1742.71
1.90911	1696.66
1.90972	1657.9
1.91033	1631.9
1.910946	1613.51
1.911559	1590.95
1.91217	1558.21
1.91279	1515.76
1.9134	1478.74
1.91402	1454.16
1.91463	1440.11
1.91525	1429.579
1.91571	1403.22

File: 3642 8401x 3303y Raman 1800 T2 D1 100x.txt
650.268	69.52726
648.343	73.9546
646.417	73.395
644.491	74.7434
642.564	75.394
640.637	75.6549
638.71	75.9662
636.782	76.4346
634.852	77.0324
632.9231	77.7833
630.992	78.9354
629.0625	79.8424
627.131	79.5197
625.198	78.6805
623.2655	77.7237
621.332	77.089
619.3988	76.0835
617.465	78.7951
615.528	83.1395
613.594	84.4409
611.656	76.1415
609.721	72.1754
607.783	74.5977
605.844	73.7763
603.9054	74.67218
601.966	75.6496
600.026	76.9158
598.0863	78.2764
596.146	79.1923
594.205	78.21785
592.261	75.9632
590.32	75.2296
588.375	76.8192
586.431	78.4194
584.486	76.7521
582.54	75.084
580.594	71.9206
578.648	71.402
576.701	73.8807
574.754	76.3379
572.805	76.584
570.857	75.284
568.906	74.461
566.958	74.4708
565.006	75.4441
563.055	76.2473
561.103	75.4357
559.15	76.1731
557.197	75.8564
555.244	74.5091
553.288	76.71418
551.334	78.1283
549.377	78.0159
547.422	78.4712
545.465	82.388
543.507	85.9782
541.549	87.629
539.59	85.9664
537.631	86.9602
535.671	89.9849
533.711	95.913
531.751	105.141
529.788	118.24
527.8269	146.522
525.863	198.944
523.899	367.2038
521.935	1043
519.9696	1913.74
518.004	616.646
516.038	276.1543
514.0722	167.225
512.106	132.65
510.138	111.671
508.169	102.686
506.201	97.5237
504.231	92.5744
502.2598	85.4095
500.289	80.0689
498.317	78.8878
496.345	80.6493
494.372	79.525
492.399	78.4163
490.426	76.6192
488.45	74.1799
486.476	73.5254
484.499	74.9037
482.524	75.5107
480.547	74.9366
478.569	74.1689
476.59	73.0636
474.611	74.402
472.6322	76.8452
470.653	74.6031
468.672	79.0652
466.69	72.6682
464.709	77.46386
462.7254	77.76049
460.744	78.6574
458.759	77.4614
456.775	77.2961
454.7894	79.1279
452.8038	80.3254
450.818	80.1671
448.831	78.7445
446.842	77.7404
444.8551	77.9346
442.867	78.1127
440.877	78.2019
438.886	78.1398
436.897	78.2929
434.906	78.4936
432.914	78.5366
430.922	78.4311
428.929	78.0745
426.935	76.5993
424.94	75.1926
422.946	75.5633
420.949	75.9891
418.954	76.07
416.957	77.0239
414.961	78.6694
412.962	77.0818
410.964	78.8416
408.964	84.0493
406.965	96.6495
404.9646	116.213
402.962	107.433
400.961	87.5566
398.958	81.5012
396.956	78.835
394.951	77.7524
392.949	76.1646
390.944	75.0297
388.938	74.4574
386.932	79.6188
384.925	85.8967
382.918	88.3502
380.909	84.053
378.901	79.5977
376.893	76.5663
374.882	75.0924
372.871	74.2438
370.861	73.5397
368.849	72.9477
366.837	72.7859
364.824	72.586
362.81	69.5678
360.796	69.7583
358.782	71.4135
356.765	72.9151
354.75	73.6146
352.734	73.9321
350.716	73.41301
348.698	72.65757
346.681	72.1303
344.661	73.5869
342.641	74.6505
340.621	73.6326
338.6	71.4172
336.577	69.2718
334.555	67.9045
332.5332	69.1205
330.509	71.765
328.486	73.4771
326.46	73.3565
324.434	72.6479
322.41	72.5178
320.383	72.0275
318.356	71.8374
316.328	72.263
314.3	73.2216
312.269	73.5978
310.24	73.7711
308.2103	75.6013
306.178	79.812
304.146	82.8116
302.115	82.6673
300.081	80.8589
298.048	78.8728
296.013	77.2673
293.979	75.995
291.943	74.44268
289.908	73.0356
287.872	71.8317
285.833	70.9958
283.796	70.9411
281.7565	71.2686
279.719	72.0496
277.678	72.3844
275.637	70.7052
273.596	69.1415
271.554	68.2816
269.512	68.0352
267.469	67.7786
265.426	66.78643
263.381	66.7648
261.337	67.5524
259.292	68.05542
257.245	68.2603
255.198	68.1257
253.1517	66.6386
251.103	64.8661
249.054	64.221
247.0052	64.5332
244.955	65.8577
242.905	67.2545
240.853	67.7757
238.801	67.0656
236.748	65.0924
234.696	65.1647
232.641	65.9954
230.588	67.6016
228.533	67.2075
226.477	66.7404
224.42	65.4755
222.364	65.0557
220.306	65.2994
218.2486	63.72261
216.188	62.1927
214.13	62.1783
212.07	62.508
210.0088	61.1943
207.947	59.3005
205.886	58.7413
203.8231	59.3333
201.7596	60.2771
199.696	59.643
197.631	58.7975
195.5663	59.2693
193.501	61.0171
191.433	60.5471
189.367	61.36272
187.3	62.60268
185.231	61.352
183.161	59.50679
181.093	57.5842
179.022	58.4566
176.951	59.5821
174.879	58.8824
172.807	58.9224
170.735	57.703
168.662	57.1102
166.586	57.9052
164.512	59.9549
162.4359	62.0471
160.361	61.5774
158.284	58.74511
156.206	58.6143
154.13	60.2953
152.051	61.038
149.971	57.6591
147.892	56.9082
145.812	57.9578
143.729	58.0817
141.648	57.16692
139.566	58.5305
138.002	59.82663

File: 3642 8432x 3254y Pl 600 T2 D1 100x.txt
1.7708	1580.235
1.77132	1603.8
1.771839	1609.59
1.77236	1615.28
1.77288	1613.71
1.77341	1615.84
1.77393	1624.16
1.77445	1635.52
1.77497	1648.46
1.7755	1655.53
1.77602	1669.39
1.77655	1688.54
1.77707	1691.84
1.777596	1686.38
1.77812	1686.24
1.77865	1698.99
1.77917	1709.06
1.7797	1714.854
1.780226	1708.13
1.780753	1728.14
1.78128	1719.64
1.78181	1716.67
1.78234	1717.72
1.78286	1723.52
1.78339	1737.288
1.78392	1745.7
1.78445	1756.51
1.78498	1758.7
1.78551	1768.91
1.78604	1783.82
1.78657	1795.24
1.7871	1809.77
1.78764	1799.69
1.78817	1801.33
1.788699	1812.32
1.78923	1825.99
1.78976	1829.65
1.7903	1834.72
1.79083	1857.322
1.79136	1870.65
1.791899	1885.2
1.79243	1901.49
1.79297	1922.78
1.7935	1940.54
1.79404	1941.25
1.79458	1943.19
1.79511	1949.67
1.79565	1969.45
1.79618	1988.21
1.79672	2002.903
1.79726	2021
1.7978	2045.776
1.79834	2062.7
1.79887	2064.5
1.79941	2069.83
1.79995	2086.95
1.80049	2082.25
1.80103	2119.17
1.80157	2117.36
1.80211	2117.4
1.80265	2142.03
1.8032	2140.89
1.803738	2138.373
1.80428	2146.884
1.80482	2163.02
1.80537	2175.92
1.80591	2181.3
1.80645	2187.61
1.807	2205.58
1.80754	2216.54
1.808085	2208.34
1.80863	2188.13
1.80918	2184.385
1.80972	2205.71
1.81027	2232.17
1.81081	2248.57
1.81136	2270.64
1.81191	2290.26
1.81245	2290.116
1.813	2299.24
1.81355	2318.79
1.8141	2339.24
1.81465	2365.7
1.815197	2387.57
1.81575	2410.86
1.8163	2427.22
1.81685	2450
1.8174	2473.86
1.81795	2503.84
1.8185	2519.84
1.81905	2537.24
1.8196	2559.71
1.82016	2589.32
1.82071	2618.51
1.82126	2631.44
1.82182	2638.854
1.822369	2650.87
1.82292	2667.28
1.82348	2680.56
1.82403	2694.238
1.82459	2709.55
1.82514	2705.75
1.8257	2706.44
1.82626	2713.45
1.82681	2716.13
1.82737	2720.32
1.82793	2738.11
1.82849	2766.85
1.82904	2780.53
1.8296	2770.94
1.830161	2767.41
1.83072	2778.64
1.83128	2790.15
1.83184	2804.54
1.8324	2826.93
1.83296	2855.91
1.83352	2880.34
1.83408	2901.83
1.83465	2926.09
1.83521	2957.42
1.83577	2967.4
1.83633	2957.7
1.8369	2962.27
1.83746	3008.77
1.83802	2993.407
1.83859	3048.48
1.83915	3063.15
1.83972	3085.43
1.84028	3090.87
1.84085	3112.53
1.841417	3131.35
1.84198	3137.1
1.84255	3145.84
1.84312	3153.126
1.84369	3157.64
1.844254	3134.64
1.84482	3120.61
1.84539	3125.42
1.84596	3138.66
1.84653	3146.09
1.8471	3127.57
1.84767	3113.99
1.84824	3108.34
1.84881	3116.043
1.84938	3121.08
1.84996	3120.87
1.85053	3109.88
1.8511	3088.824
1.85167	3063.8
1.85225	3068.51
1.85282	3077.53
1.8534	3056.26
1.85397	3038.08
1.85455	3023.1
1.85512	3029.61
1.8557	3036.96
1.85627	3034.75
1.85685	3017.68
1.85743	2980.59
1.858	2973.88
1.85858	2975.17
1.85916	2968.08
1.85974	2952.57
1.86032	2932.05
1.86089	2914.66
1.86147	2891.71
1.862054	2883.68
1.86263	2878.668
1.86322	2867.16
1.8638	2846.27
1.86438	2823.15
1.86496	2810.81
1.86554	2812.686
1.86612	2811.16
1.86671	2782.47
1.86729	2750.8
1.86787	2738.04
1.86846	2734.69
1.86904	2719.46
1.86963	2703.6
1.870213	2700.45
1.8708	2693.51
1.87138	2657.71
1.87197	2637.07
1.87256	2631.6
1.87315	2622.8
1.87373	2603.939
1.87432	2574.6
1.87491	2553.53
1.8755	2518.38
1.87609	2472.65
1.87668	2443.65
1.87727	2436.3
1.87786	2420.56
1.87845	2390.95
1.87904	2355.95
1.87963	2319.29
1.88022	2274.74
1.88082	2238.82
1.88141	2209.115
1.882	2194.92
1.8826	2188.27
1.88319	2167.09
1.88378	2130.3
1.88438	2078.01
1.88497	2053.14
1.88557	2042.78
1.88616	2021.09
1.88676	1986.04
1.88736	1955.57
1.887955	1943.77
1.88855	1928.95
1.88915	1909.51
1.88975	1890.37
1.89035	1875.11
1.89095	1861.74
1.89155	1845.5
1.89215	1822.56
1.89275	1808.03
1.89335	1788.19
1.89395	1774.47
1.89455	1760.09
1.895152	1744.89
1.89575	1730.35
1.89636	1710.51
1.89696	1691.69
1.89756	1663.35
1.89817	1635.587
1.89877	1614.8
1.899377	1604.99
1.89998	1600.6
1.90059	1588.94
1.90119	1568.43
1.9018	1545.06
1.90241	1531.921
1.90301	1528.43
1.903622	1509.47
1.90423	1493.73
1.90484	1476.66
1.90545	1465.72
1.90606	1455.81
1.90667	1443.75
1.90728	1427.78
1.90789	1401.36
1.9085	1383.5
1.90911	1373.42
1.90972	1367.24
1.91033	1355.729
1.910946	1335.33
1.911559	1315.56
1.91217	1298.69
1.91279	1283.99
1.9134	1275.32
1.91402	1268.07
1.91463	1249.55
1.91525	1230.2
1.91571	1203.19

File: 3642 8432x 3254y Raman 1800 T2 D1 100x.txt
650.268	54.5772
648.343	53.73856
646.417	53.3775
644.491	53.4085
642.564	53.7798
640.637	54.2902
638.71	55.6302
636.782	57.03252
634.852	58.4321
632.9231	58.431
630.992	57.9047
629.0625	57.3402
627.131	56.992
625.198	57.32473
623.2655	57.7628
621.332	58.2429
619.3988	58.4986
617.465	58.4714
615.528	58.0947
613.594	57.98798
611.656	57.9707
609.721	57.6706
607.783	56.8453
605.844	55.6266
603.9054	54.9983
601.966	56.0088
600.026	56.4173
598.0863	55.0423
596.146	53.0697
594.205	55.4721
592.261	56.0032
590.32	55.56953
588.375	54.5187
586.431	54.1275
584.486	54.3425
582.54	53.9343
580.594	56.2123
578.648	57.2187
576.701	54.4851
574.754	52.18
572.805	52.5347
570.857	53.2576
568.906	53.4088
566.958	51.6931
565.006	51.5271
563.055	55.7719
561.103	57.7259
559.15	56.7641
557.197	54.60165
555.244	57.1601
553.288	59.3918
551.334	58.9208
549.377	59.6417
547.422	60.8493
545.465	62.8287
543.507	64.928
541.549	65.8507
539.59	67.4618
537.631	72.0336
535.671	76.948
533.711	82.4893
531.751	90.5591
529.788	101.462
527.8269	124.6239
525.863	179.328
523.899	331.943
521.935	1028
519.9696	1916
518.004	592.336
516.038	253.721
514.0722	143.576
512.106	114.958
510.138	88.0627
508.169	83.0773
506.201	76.9392
504.231	73.0619
502.2598	67.7853
500.289	64.6555
498.317	63.7197
496.345	63.763
494.372	64.2466
492.399	61.4234
490.426	56.2857
488.45	61.0359
486.476	63.6712
484.499	60.72699
482.524	58.931
480.547	60.467
478.569	61.704
476.59	59.9589
474.611	57.3006
472.6322	57.2091
470.653	57.3397
468.672	56.6923
466.69	55.9863
464.709	55.2468
462.7254	54.5677
460.744	54.219
458.759	54.366
456.775	55.6385
454.7894	57.6793
452.8038	59.306
450.818	59.4058
448.831	59.5755
446.842	59.7213
444.8551	60.0226
442.867	60.2166
440.877	60.72472
438.886	61.3374
436.897	61.5631
434.906	59.5537
432.914	59.1274
430.922	60.6525
428.929	61.4471
426.935	60.5733
424.94	59.5083
422.946	60.16568
420.949	61.1043
418.954	61.6253
416.957	60.9891
414.961	59.5156
412.962	58.3017
410.964	59.1377
408.964	64.1462
406.965	69.8156
404.9646	70.4395
402.962	64.91906
400.961	59.5594
398.958	58.4463
396.956	58.68689
394.951	58.9288
392.949	58.239
390.944	58.9199
388.938	59.5546
386.932	60.6914
384.925	62.1988
382.918	62.1535
380.909	56.7656
378.901	59.3982
376.893	60.7224
374.882	58.7283
372.871	57.2159
370.861	56.2296
368.849	55.7504
366.837	55.7335
364.824	56.1513
362.81	57.172
360.796	58.3612
358.782	59.2826
356.765	58.84597
354.75	58.5862
352.734	58.3881
350.716	58.7453
348.698	58.9345
346.681	59.00523
344.661	58.9254
342.641	58.6697
340.621	58.23349
338.6	57.5625
336.577	56.8878
334.555	55.5112
332.5332	54.3013
330.509	55.6964
328.486	57.8779
326.46	59.0916
324.434	58.0174
322.41	57.1588
320.383	57.9578
318.356	59.5505
316.328	61.8639
314.3	63.984
312.269	64.0127
310.24	62.55714
308.2103	61.2801
306.178	64.3477
304.146	68.9937
302.115	71.0265
300.081	69.158
298.048	64.0478
296.013	60.5793
293.979	60.324
291.943	60.8043
289.908	60.7582
287.872	60.4865
285.833	59.2094
283.796	57.7382
281.7565	56.5385
279.719	56.93898
277.678	58.127
275.637	59.0639
273.596	58.4234
271.554	57.5122
269.512	57.1216
267.469	56.5822
265.426	55.7504
263.381	54.3355
261.337	55.801
259.292	56.7526
257.245	54.7015
255.198	53.0679
253.1517	52.0428
251.103	52.3489
249.054	53.459
247.0052	53.1141
244.955	53.1401
242.905	53.2545
240.853	54.2276
238.801	55.2107
236.748	55.4667
234.696	56.338
232.641	55.3094
230.588	54.9081
228.533	54.0486
226.477	54.1039
224.42	53.5358
222.364	52.53421
220.306	51.7277
218.2486	49.8172
216.188	48.6099
214.13	47.9239
212.07	49.213
210.0088	49.41861
207.947	47.8701
205.886	47.5903
203.8231	47.4416
201.7596	46.1897
199.696	45.2806
197.631	47.6119
195.5663	48.0094
193.501	47.1446
191.433	46.3839
189.367	46.9392
187.3	47.6865
185.231	48.3266
183.161	48.5253
181.093	48.2133
179.022	47.7892
176.951	47.3404
174.879	46.9422
172.807	46.6226
170.735	46.1539
168.662	45.20137
166.586	44.3295
164.512	43.9549
162.4359	45.7382
160.361	47.6976
158.284	48.9509
156.206	48.783
154.13	47.4568
152.051	45.6013
149.971	44.54311
147.892	45.46199
145.812	48.1594
143.729	50.2648
141.648	49.91
139.566	47.1699
138.002	46.0458