Folder: physics-132/bartels lab/3642 MoS2 on 1012 WG/Raman_5_21_2015_Dominic/C3_R2 (part 2)

File: 3642 8432x 3294y PL 600 T2 D1 100x.txt
1.7708	2940.4
1.77132	2971.46
1.771839	3007.62
1.77236	3053.08
1.77288	3097.16
1.77341	3131.52
1.77393	3153.675
1.77445	3162.272
1.77497	3185.39
1.7755	3205.97
1.77602	3248.43
1.77655	3303.59
1.77707	3335.24
1.777596	3353.365
1.77812	3371.375
1.77865	3396.67
1.77917	3436.05
1.7797	3469.229
1.780226	3498.69
1.780753	3533.68
1.78128	3566
1.78181	3582.94
1.78234	3611.81
1.78286	3659
1.78339	3707.64
1.78392	3718.68
1.78445	3731.15
1.78498	3778.55
1.78551	3826.41
1.78604	3861.38
1.78657	3897.97
1.7871	3943.25
1.78764	3991.81
1.78817	4032.55
1.788699	4067.26
1.78923	4111.6
1.78976	4160.13
1.7903	4204.48
1.79083	4252.17
1.79136	4298.875
1.791899	4362.15
1.79243	4432.32
1.79297	4496.74
1.7935	4539.76
1.79404	4581.88
1.79458	4644.97
1.79511	4719.87
1.79565	4805.23
1.79618	4877.33
1.79672	4916.6
1.79726	4970.88
1.7978	5066.26
1.79834	5126.88
1.79887	5202.46
1.79941	5270.68
1.79995	5320.05
1.80049	5382.439
1.80103	5453.36
1.80157	5528.45
1.80211	5581.57
1.80265	5622.52
1.8032	5665.603
1.803738	5706.36
1.80428	5751.584
1.80482	5809.77
1.80537	5873.95
1.80591	5923.46
1.80645	5963.33
1.807	6012.22
1.80754	6062.72
1.808085	6114.54
1.80863	6141.88
1.80918	6214.9
1.80972	6295.19
1.81027	6369.84
1.81081	6429.64
1.81136	6478.22
1.81191	6531.47
1.81245	6623.87
1.813	6742.36
1.81355	6857.89
1.8141	6950.05
1.81465	7011.42
1.815197	7112.35
1.81575	7247.26
1.8163	7374.23
1.81685	7474.63
1.8174	7586.418
1.81795	7708.41
1.8185	7841.47
1.81905	7960.53
1.8196	8089.82
1.82016	8199.73
1.82071	8280.36
1.82126	8342.61
1.82182	8423.33
1.822369	8542.51
1.82292	8661.11
1.82348	8749.02
1.82403	8817.01
1.82459	8877
1.82514	8949.85
1.8257	9014.93
1.82626	9080.23
1.82681	9136.14
1.82737	9180.62
1.82793	9238.5
1.82849	9309.16
1.82904	9368.57
1.8296	9434.459
1.830161	9499.4
1.83072	9557.76
1.83128	9624.34
1.83184	9704.87
1.8324	9782.19
1.83296	9868.916
1.83352	9966.98
1.83408	10080.451
1.83465	10181.118
1.83521	10263.783
1.83577	10371.292
1.83633	10489.41
1.8369	10574.774
1.83746	10643.032
1.83802	10743.011
1.83859	10857.297
1.83915	10949.419
1.83972	11020.407
1.84028	11090.604
1.84085	11157.804
1.841417	11237.604
1.84198	11282.504
1.84255	11327.929
1.84312	11340.929
1.84369	11386.443
1.844254	11424.783
1.84482	11430.123
1.84539	11411.052
1.84596	11361.312
1.84653	11347.465
1.8471	11362.796
1.84767	11318.626
1.84824	11319.416
1.84881	11334.56
1.84938	11339.186
1.84996	11308.78
1.85053	11246.62
1.8511	11198.863
1.85167	11152.622
1.85225	11138.822
1.85282	11123.591
1.8534	11108.27
1.85397	11065.605
1.85455	11015.077
1.85512	10968.584
1.8557	10911.914
1.85627	10826.567
1.85685	10756.766
1.85743	10733.819
1.858	10694.461
1.85858	10612.354
1.85916	10520.392
1.85974	10458.582
1.86032	10380.419
1.86089	10276.291
1.86147	10157.878
1.862054	10054.046
1.86263	9985.58
1.86322	9925.45
1.8638	9847.91
1.86438	9739.59
1.86496	9606.81
1.86554	9479.48
1.86612	9391.93
1.86671	9314.97
1.86729	9234.43
1.86787	9111.78
1.86846	9009.667
1.86904	8946.48
1.86963	8890.03
1.870213	8805
1.8708	8645.95
1.87138	8507.84
1.87197	8401.41
1.87256	8312.86
1.87315	8222.42
1.87373	8127.42
1.87432	7994.61
1.87491	7836.17
1.8755	7659.35
1.87609	7534.51
1.87668	7416.38
1.87727	7277.15
1.87786	7140.09
1.87845	6999
1.87904	6847.76
1.87963	6686.19
1.88022	6543.43
1.88082	6423.91
1.88141	6283.98
1.882	6143.93
1.8826	6039.85
1.88319	5898.481
1.88378	5748.22
1.88438	5601.24
1.88497	5480.53
1.88557	5393.61
1.88616	5296.57
1.88676	5173.66
1.88736	5051.03
1.887955	4949.04
1.88855	4858.44
1.88915	4751.89
1.88975	4642.02
1.89035	4538.38
1.89095	4460.75
1.89155	4386.02
1.89215	4299.39
1.89275	4210.13
1.89335	4116.6
1.89395	4032.71
1.89455	3956.06
1.895152	3895.76
1.89575	3823.26
1.89636	3727.73
1.89696	3641.49
1.89756	3555.68
1.89817	3503.66
1.89877	3448.92
1.899377	3366.52
1.89998	3286.24
1.90059	3221.67
1.90119	3163.43
1.9018	3108.92
1.90241	3040.76
1.90301	2969.48
1.903622	2894.83
1.90423	2832.92
1.90484	2785.12
1.90545	2725.21
1.90606	2663.93
1.90667	2609.47
1.90728	2560.15
1.90789	2504.84
1.9085	2440.02
1.90911	2383.22
1.90972	2338.15
1.91033	2294.84
1.910946	2248.36
1.911559	2193.73
1.91217	2161.14
1.91279	2123.47
1.9134	2075.47
1.91402	2022.12
1.91463	1971.1
1.91525	1942.24
1.91571	1915.57

File: 3642 8432x 3294y Raman 1800 T2 D1 100x.txt
650.268	75.47908
648.343	74.3144
646.417	74.1171
644.491	75.7287
642.564	77.5057
640.637	78.1648
638.71	77.1764
636.782	76.5619
634.852	77.8819
632.9231	80.9522
630.992	80.3603
629.0625	77.8935
627.131	78.4887
625.198	82.41777
623.2655	84.3088
621.332	83.1128
619.3988	81.1128
617.465	80.506
615.528	79.1085
613.594	76.8895
611.656	75.6059
609.721	76.4719
607.783	76.74498
605.844	72.9374
603.9054	70.8356
601.966	76.7175
600.026	80.7305
598.0863	78.6869
596.146	76.5818
594.205	74.8324
592.261	73.3967
590.32	72.4683
588.375	72.3249
586.431	73.2826
584.486	75.5148
582.54	76.8621
580.594	75.3765
578.648	73.595
576.701	73.2104
574.754	74.5509
572.805	76.6145
570.857	77.393
568.906	77.18586
566.958	76.7295
565.006	75.8868
563.055	75.1317
561.103	74.76226
559.15	75.90744
557.197	77.0008
555.244	77.4493
553.288	77.2978
551.334	76.9865
549.377	76.6901
547.422	77.2355
545.465	78.3983
543.507	78.7407
541.549	79.2837
539.59	80.8611
537.631	82.9957
535.671	86.09465
533.711	91.61013
531.751	101.451
529.788	111.5
527.8269	129.296
525.863	173.175
523.899	321.193
521.935	997.036
519.9696	1189
518.004	408.345
516.038	202.4268
514.0722	137.878
512.106	111.733
510.138	98.0027
508.169	90.946
506.201	85.38031
504.231	80.6494
502.2598	76.1475
500.289	73.33503
498.317	74.36618
496.345	76.66877
494.372	76.5991
492.399	75.2034
490.426	74.549
488.45	75.28392
486.476	75.5435
484.499	74.1391
482.524	72.549
480.547	70.659
478.569	71.5851
476.59	73.4778
474.611	73.4367
472.6322	72.82769
470.653	72.8272
468.672	74.4163
466.69	75.8292
464.709	76.1624
462.7254	76.243
460.744	75.6074
458.759	75.2032
456.775	78.0015
454.7894	80.49839
452.8038	82.7459
450.818	80.6694
448.831	80.1841
446.842	80.6242
444.8551	80.5378
442.867	79.5124
440.877	78.6155
438.886	79.0406
436.897	79.1488
434.906	78.1512
432.914	77.2181
430.922	76.3056
428.929	75.87664
426.935	76.5526
424.94	78.74192
422.946	81.5574
420.949	78.9075
418.954	78.90744
416.957	78.7947
414.961	77.4115
412.962	78.7
410.964	82.1459
408.964	89.2032
406.965	101.699
404.9646	123.545
402.962	110.0999
400.961	88.2691
398.958	80.15316
396.956	76.8904
394.951	76.53
392.949	75.2393
390.944	74.6907
388.938	77.2356
386.932	82.8974
384.925	91.1482
382.918	92.62867
380.909	86.7758
378.901	79.4301
376.893	76.8136
374.882	75.8523
372.871	75.0281
370.861	74.0484
368.849	72.2896
366.837	73.109
364.824	76.01403
362.81	75.3414
360.796	74.8586
358.782	73.812
356.765	72.6049
354.75	72.1964
352.734	71.9018
350.716	71.0838
348.698	69.7246
346.681	68.75853
344.661	69.7047
342.641	71.6194
340.621	72.9771
338.6	73.4809
336.577	74.3965
334.555	71.8252
332.5332	71.15567
330.509	70.7203
328.486	71.0825
326.46	71.8344
324.434	72.6105
322.41	72.3789
320.383	71.2684
318.356	70.3357
316.328	71.41848
314.3	74.78286
312.269	72.7278
310.24	74.4697
308.2103	76.08918
306.178	76.3237
304.146	74.539
302.115	73.2187
300.081	75.3964
298.048	76.1979
296.013	74.9532
293.979	72.9563
291.943	71.0741
289.908	69.2642
287.872	67.741
285.833	67.9065
283.796	70.1635
281.7565	71.026
279.719	70.0769
277.678	69.1443
275.637	68.4323
273.596	68.0113
271.554	68.9129
269.512	69.8946
267.469	69.9294
265.426	69.0472
263.381	67.3927
261.337	66.6614
259.292	68.8451
257.245	67.8823
255.198	65.5411
253.1517	64.5586
251.103	66.1705
249.054	68.1524
247.0052	67.3304
244.955	65.847
242.905	64.9056
240.853	65.6273
238.801	65.0183
236.748	62.39632
234.696	61.5028
232.641	62.581
230.588	65.4303
228.533	67.3831
226.477	66.0683
224.42	62.7708
222.364	61.1331
220.306	61.7603
218.2486	62.3377
216.188	62.3687
214.13	62.4167
212.07	62.2249
210.0088	61.0402
207.947	58.7448
205.886	58.4648
203.8231	59.9728
201.7596	59.971
199.696	58.8014
197.631	57.8984
195.5663	58.0897
193.501	58.8013
191.433	59.7794
189.367	61.0343
187.3	61.8545
185.231	60.6593
183.161	58.2959
181.093	60.1823
179.022	60.8327
176.951	60.0555
174.879	59.3622
172.807	58.9104
170.735	58.8287
168.662	58.9204
166.586	59.049
164.512	59.2493
162.4359	59.5908
160.361	60.2309
158.284	60.8782
156.206	61.39534
154.13	61.6471
152.051	61.1688
149.971	60.3635
147.892	58.7999
145.812	57.3722
143.729	56.843
141.648	57.8599
139.566	59.0198
138.002	55.5842

File: 3642 8432x 3303y Raman 1800 T2 D1 100x.txt
650.268	66.0774
648.343	66.5254
646.417	65.042
644.491	63.7467
642.564	63.109
640.637	63.5526
638.71	64.3903
636.782	65.3286
634.852	65.9729
632.9231	65.7962
630.992	65.4061
629.0625	64.812
627.131	64.85672
625.198	65.1344
623.2655	65.4738
621.332	65.7539
619.3988	65.938
617.465	66.0165
615.528	65.9227
613.594	65.6226
611.656	65.3214
609.721	65.0051
607.783	64.6301
605.844	63.96637
603.9054	62.9236
601.966	61.8999
600.026	66.1888
598.0863	64.6195
596.146	65.1014
594.205	64.8464
592.261	63.3911
590.32	63.65258
588.375	64.221
586.431	62.5996
584.486	61.76643
582.54	62.5896
580.594	63.7616
578.648	64.1142
576.701	63.5808
574.754	61.9508
572.805	60.3609
570.857	61.3772
568.906	64.0245
566.958	63.8128
565.006	62.704
563.055	63.2565
561.103	66.0929
559.15	65.8423
557.197	63.1431
555.244	60.4424
553.288	62.3477
551.334	67.39489
549.377	68.1617
547.422	64.9627
545.465	67.3245
543.507	70.84111
541.549	72.9764
539.59	73.8096
537.631	76.2831
535.671	80.67083
533.711	86.9228
531.751	95.2327
529.788	105.777
527.8269	128.912
525.863	185.533
523.899	349.085
521.935	1030
519.9696	1883
518.004	566.601
516.038	260.156
514.0722	148.016
512.106	113.6
510.138	96.617
508.169	85.5408
506.201	79.6952
504.231	75.9886
502.2598	73.7955
500.289	73.2861
498.317	72.4374
496.345	69.0468
494.372	66.7498
492.399	66.8567
490.426	65.8564
488.45	63.4192
486.476	61.897
484.499	62.255
482.524	64.0703
480.547	65.105
478.569	65.1983
476.59	65.2527
474.611	65.2779
472.6322	65.2941
470.653	65.33416
468.672	65.5301
466.69	65.0642
464.709	64.536
462.7254	64.0881
460.744	64.1034
458.759	64.7758
456.775	65.3824
454.7894	66.0046
452.8038	66.5225
450.818	67.0573
448.831	67.5697
446.842	67.9886
444.8551	68.281
442.867	68.3224
440.877	68.0744
438.886	67.5759
436.897	66.9255
434.906	66.2928
432.914	65.8353
430.922	67.5741
428.929	70.4125
426.935	66.4718
424.94	62.7023
422.946	64.9814
420.949	67.8945
418.954	68.1638
416.957	67.6802
414.961	69.5024
412.962	69.668
410.964	70.0267
408.964	71.8268
406.965	78.4336
404.9646	94.7134
402.962	102.038
400.961	78.818
398.958	68.2982
396.956	64.0585
394.951	65.1126
392.949	66.496
390.944	66.8907
388.938	66.439
386.932	69.3116
384.925	75.62812
382.918	77.3921
380.909	72.0317
378.901	66.7069
376.893	65.7335
374.882	66.5703
372.871	65.29351
370.861	63.6928
368.849	63.9425
366.837	65.4083
364.824	63.8607
362.81	60.5681
360.796	60.4679
358.782	62.4218
356.765	62.8014
354.75	62.4699
352.734	62.0073
350.716	61.5913
348.698	61.4928
346.681	62.5662
344.661	64.9078
342.641	65.2673
340.621	62.7107
338.6	62.3049
336.577	63.3747
334.555	64.5929
332.5332	65.2077
330.509	65.63987
328.486	65.5412
326.46	65.32618
324.434	65.0797
322.41	64.957
320.383	65.1162
318.356	65.8859
316.328	66.9905
314.3	68.3485
312.269	67.3217
310.24	65.1596
308.2103	68.4426
306.178	68.8322
304.146	70.4259
302.115	72.0665
300.081	72.03199
298.048	70.7706
296.013	69.1322
293.979	66.79689
291.943	63.6211
289.908	62.2363
287.872	62.29649
285.833	63.6324
283.796	65.4722
281.7565	65.78
279.719	64.97113
277.678	63.7886
275.637	62.6332
273.596	61.56567
271.554	60.6439
269.512	59.9001
267.469	59.6342
265.426	59.8597
263.381	60.0851
261.337	59.2682
259.292	58.1957
257.245	57.9087
255.198	58.5176
253.1517	59.165
251.103	59.7058
249.054	59.8369
247.0052	59.936
244.955	59.9232
242.905	59.7137
240.853	59.2738
238.801	58.6352
236.748	57.9368
234.696	60.2555
232.641	60.0695
230.588	59.13335
228.533	58.9941
226.477	58.7113
224.42	57.5616
222.364	55.869
220.306	54.2127
218.2486	52.9875
216.188	53.38522
214.13	54.3803
212.07	55.209
210.0088	53.8325
207.947	52.47242
205.886	52.4386
203.8231	53.347
201.7596	53.7589
199.696	53.9386
197.631	53.7248
195.5663	52.5082
193.501	50.7568
191.433	51.27562
189.367	52.6419
187.3	53.5825
185.231	54.20874
183.161	54.30114
181.093	53.812
179.022	52.123
176.951	49.863
174.879	48.6235
172.807	48.6812
170.735	49.3782
168.662	50.535
166.586	52.4955
164.512	54.419
162.4359	53.8241
160.361	51.76104
158.284	49.7364
156.206	52.1962
154.13	53.0278
152.051	50.2992
149.971	48.4907
147.892	49.407
145.812	49.92136
143.729	50.29855
141.648	50.64275
139.566	51.0643
138.002	51.3987